Packet number,Gyroscope X (deg/s),Gyroscope Y (deg/s),Gyroscope Z (deg/s),Accelerometer X (g),Accelerometer Y (g),Accelerometer Z (g),Magnetometer X (G),Magnetometer Y (G),Magnetometer Z (G)
0,-2.116582,-0.086196,9.357017,-0.02880859,0.01660156,1.01709,15.99951,15.99951,15.11475
2,-2.121371,-0.067041,9.34744,0.002441406,-0.002441406,0.9736328,15.99951,15.99951,15.09375
4,-2.130948,-0.07183,9.342651,0.006347656,0.01660156,0.9892578,15.99951,15.99951,15.09375
6,-2.126159,-0.086196,9.323497,-0.04052734,0.03222656,1.013184,15.99951,15.99951,15.09375
8,-2.126159,-0.076618,9.323497,-0.01708984,-0.002441406,0.9970703,15.99951,15.99951,15.12012
10,-2.126159,-0.062252,9.309131,-0.03271484,0.02050781,0.9853516,15.99951,15.99951,15.12012
12,-2.126159,-0.076618,9.323497,-0.000976563,0.03613281,0.9853516,15.99951,15.99951,15.12012
15,-2.126159,-0.07183,9.333074,0.02197266,0.008789063,0.9970703,15.99951,15.99951,15.12012
18,-2.135737,-0.067041,9.333074,-0.02880859,0.008789063,1.020996,15.99951,15.99951,15.1123
20,-2.145314,-0.086196,9.333074,-0.04833984,0.01660156,1.013184,15.99951,15.99951,15.1123
22,-2.130948,-0.07183,9.309131,-0.02490234,-0.01025391,0.9853516,15.99951,15.99951,15.1123
24,-2.130948,-0.081407,9.342651,0.006347656,-0.01416016,1.008789,15.99951,15.99951,15.1123
26,-2.121371,-0.076618,9.34744,-0.01318359,0.01269531,0.9931641,15.99951,15.99951,15.1123
28,-2.121371,-0.081407,9.309131,-0.008789063,0.01269531,1.008789,15.99951,15.99951,15.1123
30,-2.130948,-0.057464,9.323497,-0.008789063,0.02050781,1.000977,15.99951,15.99951,15.12012
32,-2.130948,-0.067041,9.318707,-0.02880859,0.01660156,0.9931641,15.99951,15.99951,15.12012
34,-2.135737,-0.076618,9.328285,0.006347656,0.000976563,1.004883,15.99951,15.99951,15.12012
36,-2.145314,-0.052675,9.342651,-0.008789063,0.02441406,1.004883,15.99951,15.99951,15.12012
38,-2.111794,-0.07183,9.304342,0.002441406,0.004882813,1.004883,15.99951,15.99951,15.12012
40,-2.126159,-0.076618,9.323497,-0.000976563,0.03222656,1.000977,15.99951,15.99951,15.12012
42,-2.140525,-0.067041,9.318707,-0.008789063,0.05224609,1.020996,15.99951,15.99951,15.12012
44,-2.135737,-0.076618,9.34744,-0.04833984,0.02832031,1.000977,15.99951,15.99951,15.10156
46,-2.121371,-0.07183,9.328285,-0.02880859,0.02832031,0.9970703,15.99951,15.99951,15.10156
48,-2.116582,-0.076618,9.294765,-0.004882813,0.004882813,0.9853516,15.99951,15.99951,15.10156
51,-2.140525,-0.086196,9.342651,-0.01708984,-0.01416016,1.000977,15.99951,15.99951,15.11475
53,-2.135737,-0.076618,9.318707,-0.000976563,-0.002441406,0.9892578,15.99951,15.99951,15.11475
55,-2.145314,-0.062252,9.328285,-0.008789063,-0.002441406,1.013184,15.99951,15.99951,15.11475
57,-2.298551,-0.114928,9.313919,-0.02490234,0.01269531,0.9814453,15.99951,15.99951,15.11475
59,-2.202778,-0.090984,9.294765,-0.004882813,-0.002441406,0.9736328,15.99951,15.99951,15.10449
61,-2.154891,-0.076618,9.304342,-0.000976563,0.02832031,0.9814453,15.99951,15.99951,15.10449
63,-2.116582,-0.090984,9.337862,-0.000976563,-0.006347656,0.9814453,15.99951,15.99951,15.10449
65,-2.150103,-0.081407,9.34744,-0.03271484,0.03222656,1.036621,15.99951,15.99951,15.10693
67,-2.140525,-0.081407,9.328285,-0.02880859,0.000976563,1.000977,15.99951,15.99951,15.10693
69,-2.150103,-0.081407,9.309131,-0.01318359,0.02441406,0.9814453,15.99951,15.99951,15.10693
71,-2.15968,-0.081407,9.318707,-0.01708984,0.000976563,0.9970703,15.99951,15.99951,15.10693
73,-2.145314,-0.086196,9.328285,-0.01708984,0.008789063,1.013184,15.99951,15.99951,15.12793
75,-2.140525,-0.081407,9.337862,-0.03662109,0.004882813,1.004883,15.99951,15.99951,15.12793
77,-2.135737,-0.076618,9.328285,-0.000976563,-0.002441406,1.024902,15.99951,15.99951,15.12793
79,-2.140525,-0.07183,9.304342,0.002441406,0.01660156,0.9931641,15.99951,15.99951,15.11768
81,-2.121371,-0.076618,9.337862,-0.03271484,-0.002441406,1.008789,15.99951,15.99951,15.11768
84,-2.130948,-0.07183,9.323497,-0.000976563,0.03222656,1.020996,15.99951,15.99951,15.11768
86,-2.145314,-0.076618,9.357017,-0.000976563,-0.002441406,1.000977,15.99951,15.99951,15.12012
88,-2.116582,-0.07183,9.333074,-0.01708984,0.04052734,1.01709,15.99951,15.99951,15.12012
90,-2.15968,-0.067041,9.328285,0.01025391,0.01660156,1.000977,15.99951,15.99951,15.12012
92,-2.140525,-0.07183,9.304342,-0.008789063,0.02050781,0.9970703,15.99951,15.99951,15.12012
94,-2.059118,-0.076618,9.352228,-0.008789063,-0.006347656,1.020996,15.99951,15.99951,15.11768
96,-2.044752,-0.062252,9.366594,-0.008789063,0.03222656,0.9736328,15.99951,15.99951,15.11768
98,-2.001655,-0.047886,9.371383,-0.004882813,0.02050781,1.000977,15.99951,15.99951,15.11768
100,-2.063907,-0.076618,9.333074,-0.01318359,0.000976563,1.008789,15.99951,15.99951,15.1123
102,-2.107005,-0.081407,9.357017,-0.02099609,0.03222656,0.9931641,15.99951,15.99951,15.1123
104,-2.111794,-0.07183,9.361806,-0.008789063,0.01660156,0.9614258,15.99951,15.99951,15.1123
106,-2.097428,-0.052675,9.361806,0.01806641,0.02050781,0.9853516,15.99951,15.99951,15.1123
108,-2.116582,-0.062252,9.34744,0.01806641,-0.006347656,0.9814453,15.99951,15.99951,15.11768
110,-2.116582,-0.076618,9.328285,-0.008789063,-0.006347656,0.9931641,15.99951,15.99951,15.11768
112,-2.039964,-0.067041,9.404903,-0.02099609,0.004882813,0.9853516,15.99951,15.99951,15.11768
114,-2.202778,0.014366,9.261244,0.002441406,0.02832031,1.008789,15.99951,15.99951,15.11768
117,-2.083062,-0.081407,9.376172,-0.008789063,0.02441406,0.9892578,15.99951,15.99951,15.11768
119,-2.188412,-0.081407,9.313919,0.01416016,0.04052734,1.008789,15.99951,15.99951,15.11768
121,-2.188412,-0.081407,9.304342,0.002441406,0.02832031,1.028809,15.99951,15.99951,15.12012
123,-2.145314,-0.062252,9.34744,0.002441406,0.01660156,0.9931641,15.99951,15.99951,15.12012
125,-2.145314,-0.07183,9.337862,-0.004882813,0.02832031,1.01709,15.99951,15.99951,15.12012
127,-2.130948,-0.067041,9.323497,-0.000976563,0.02050781,1.008789,15.99951,15.99951,15.12012
129,-2.140525,-0.076618,9.34744,0.006347656,0.02441406,1.01709,15.99951,15.99951,15.10938
131,-2.150103,-0.076618,9.323497,-0.01708984,-0.002441406,1.004883,15.99951,15.99951,15.10938
133,-2.130948,-0.062252,9.337862,-0.01708984,0.01660156,0.9931641,15.99951,15.99951,15.10938
135,-2.140525,-0.076618,9.342651,-0.01318359,0.01269531,1.020996,15.99951,15.99951,15.1123
137,-2.130948,-0.076618,9.323497,-0.000976563,0.01269531,1.020996,15.99951,15.99951,15.1123
139,-2.126159,-0.086196,9.337862,-0.000976563,0.008789063,1.004883,15.99951,15.99951,15.1123
141,-2.116582,-0.057464,9.323497,-0.01318359,0.008789063,0.9853516,15.99951,15.99951,15.1123
143,-2.102216,-0.07183,9.309131,0.01025391,0.000976563,0.9931641,15.99951,15.99951,15.11768
145,-2.121371,-0.086196,9.342651,-0.01708984,-0.002441406,0.9970703,15.99951,15.99951,15.11768
149,-2.08785,-0.081407,9.342651,-0.02880859,0.03613281,0.9970703,15.99951,15.99951,15.11768
152,-2.126159,-0.114928,9.323497,-0.01318359,-0.002441406,0.9814453,15.99951,15.99951,15.1123
154,-2.174046,-0.10535,9.323497,0.002441406,0.03613281,0.9814453,15.99951,15.99951,15.1123
156,-2.126159,-0.07183,9.328285,-0.000976563,0.02832031,0.9970703,15.99951,15.99951,15.1123
158,-2.107005,-0.081407,9.323497,-0.01318359,0.01269531,0.9697266,15.99951,15.99951,15.11475
160,-2.130948,-0.062252,9.357017,0.006347656,0.000976563,0.9892578,15.99951,15.99951,15.11475
162,-2.102216,-0.07183,9.361806,0.002441406,-0.02197266,1.013184,15.99951,15.99951,15.11475
164,-2.08785,-0.076618,9.294765,-0.004882813,0.02832031,1.01709,15.99951,15.99951,15.11475
166,-2.15968,-0.067041,9.342651,0.01806641,0.02050781,0.9853516,15.99951,15.99951,15.1123
168,-2.121371,-0.062252,9.328285,0.006347656,0.000976563,0.9853516,15.99951,15.99951,15.1123
170,-2.140525,-0.062252,9.333074,0.01416016,0.004882813,0.9970703,15.99951,15.99951,15.1123
172,-2.111794,-0.07183,9.328285,0.01806641,0.02050781,1.013184,15.99951,15.99951,15.11475
174,-2.083062,-0.057464,9.352228,0.002441406,0.008789063,0.9892578,15.99951,15.99951,15.11475
176,-2.044752,-0.086196,9.400115,-0.008789063,0.004882813,1.028809,15.99951,15.99951,15.11475
178,-1.312089,0.158025,8.820688,-0.02490234,-0.002441406,0.9892578,15.99951,15.99951,15.11475
180,-2.423056,0.277742,9.237301,-0.000976563,-0.006347656,0.9892578,15.99951,15.99951,15.11475
182,-2.293762,0.258587,9.304342,0.01025391,0.004882813,0.9736328,15.99951,15.99951,15.11475
185,-2.298551,0.263376,9.289976,-0.01318359,0.01660156,0.9853516,15.99951,15.99951,15.11475
187,-2.298551,0.272953,9.299553,-0.01708984,0.02832031,1.020996,15.99951,15.99951,15.11768
189,-2.308128,0.263376,9.280398,0.002441406,0.008789063,1.008789,15.99951,15.99951,15.11768
191,-2.288974,0.277742,9.289976,-0.02490234,0.000976563,0.9892578,15.99951,15.99951,15.11768
193,-2.288974,0.263376,9.294765,-0.01708984,0.02050781,0.9931641,15.99951,15.99951,15.11768
195,-2.298551,0.263376,9.242089,-0.008789063,0.000976563,1.013184,15.99951,15.99951,15.11768
197,-2.303339,0.277742,9.289976,-0.02880859,-0.006347656,0.9931641,15.99951,15.99951,15.11768
199,-2.322494,0.253798,9.285188,-0.04052734,0.004882813,1.008789,15.99951,15.99951,15.11768
201,-2.317705,0.268164,9.304342,-0.000976563,0.000976563,1.032715,15.99951,15.99951,15.11768
203,-2.303339,0.263376,9.27561,-0.000976563,0.01269531,0.9892578,15.99951,15.99951,15.11768
205,-2.312917,0.258587,9.304342,0.006347656,-0.006347656,0.9970703,15.99951,15.99951,15.11768
207,-2.317705,0.277742,9.294765,-0.01708984,0.008789063,1.013184,15.99951,15.99951,15.11768
209,-2.308128,0.268164,9.256455,-0.01708984,-0.006347656,1.008789,15.99951,15.99951,15.11768
211,-2.317705,0.272953,9.280398,0.006347656,0.01660156,0.9970703,15.99951,15.99951,15.11768
213,-2.322494,0.268164,9.313919,-0.004882813,0.03222656,0.9853516,15.99951,15.99951,15.11475
215,-2.308128,0.253798,9.280398,0.01806641,-0.01025391,0.9853516,15.99951,15.99951,15.11475
218,-2.317705,0.263376,9.285188,-0.004882813,-0.002441406,1.004883,15.99951,15.99951,15.11475
220,-2.303339,0.263376,9.27561,-0.02099609,0.03613281,1.020996,15.99951,15.99951,15.11475
222,-2.312917,0.263376,9.294765,-0.01318359,0.02441406,1.028809,15.99951,15.99951,15.1123
224,-2.308128,0.258587,9.280398,0.01806641,0.02832031,0.9775391,15.99951,15.99951,15.1123
226,-2.317705,0.277742,9.289976,-0.01318359,-0.002441406,0.9892578,15.99951,15.99951,15.1123
228,-2.308128,0.268164,9.289976,0.02197266,0.02441406,0.9853516,15.99951,15.99951,15.11768
230,-2.298551,0.272953,9.309131,-0.01318359,0.008789063,1.020996,15.99951,15.99951,15.11768
232,-2.312917,0.272953,9.318707,-0.004882813,-0.002441406,1.000977,15.99951,15.99951,15.11768
234,-2.312917,0.272953,9.280398,0.002441406,-0.01416016,1.008789,15.99951,15.99951,15.11768
236,-2.298551,0.277742,9.27561,-0.01708984,-0.01416016,0.9853516,15.99951,15.99951,15.10449
238,-2.303339,0.258587,9.299553,-0.000976563,0.004882813,1.01709,15.99951,15.99951,15.10449
240,-2.317705,0.263376,9.27561,-0.02490234,0.01269531,1.028809,15.99951,15.99951,15.10449
242,-2.308128,0.263376,9.256455,-0.02099609,-0.002441406,0.9931641,15.99951,15.99951,15.1123
244,-2.308128,0.268164,9.294765,-0.01708984,0.008789063,1.020996,15.99951,15.99951,15.1123
246,-2.332071,0.263376,9.261244,0.01806641,-0.002441406,0.9736328,15.99951,15.99951,15.1123
248,-2.322494,0.263376,9.304342,-0.01708984,0.03222656,0.9970703,15.99951,15.99951,15.11768
251,-2.303339,0.268164,9.299553,-0.02099609,0.008789063,0.9853516,15.99951,15.99951,15.11768
253,-2.303339,0.258587,9.270822,-0.02490234,0.000976563,0.9892578,15.99951,15.99951,15.11768
255,-2.308128,0.24901,9.285188,-0.02099609,0.01660156,1.004883,15.99951,15.99951,15.11768
257,-2.303339,0.258587,9.289976,-0.000976563,0.008789063,1.04834,15.99951,15.99951,15.10693
259,-2.303339,0.258587,9.289976,-0.02099609,0.000976563,1.020996,15.99951,15.99951,15.10693
261,-2.312917,0.24901,9.289976,-0.008789063,-0.01025391,1.01709,15.99951,15.99951,15.10693
263,-2.327283,0.258587,9.289976,0.02197266,0.01660156,1.013184,15.99951,15.99951,15.12012
265,-2.308128,0.253798,9.270822,-0.01708984,0.02832031,0.9814453,15.99951,15.99951,15.12012
267,-2.327283,0.258587,9.266033,-0.02099609,-0.006347656,0.9853516,15.99951,15.99951,15.12012
269,-2.308128,0.253798,9.289976,-0.01708984,0.01269531,1.036621,15.99951,15.99951,15.12012
271,-2.298551,0.263376,9.289976,-0.01708984,0.004882813,0.9775391,15.99951,15.99951,15.12012
273,-2.308128,0.263376,9.270822,0.01806641,0.02050781,1.004883,15.99951,15.99951,15.12012
275,-2.312917,0.268164,9.289976,0.01025391,0.008789063,0.9931641,15.99951,15.99951,15.12012
277,-2.293762,0.258587,9.313919,0.01025391,0.000976563,0.9970703,15.99951,15.99951,15.10938
279,-2.298551,0.268164,9.304342,-0.02490234,0.008789063,0.9853516,15.99951,15.99951,15.10938
282,-2.288974,0.272953,9.27561,-0.01708984,0.02832031,0.9814453,15.99951,15.99951,15.10938
285,-2.303339,0.258587,9.270822,0.006347656,0.004882813,1.01709,15.99951,15.99951,15.11768
287,-2.37038,0.28253,9.280398,0.02978516,0.008789063,0.9931641,15.99951,15.99951,15.11768
289,-2.351226,0.253798,9.270822,-0.02880859,0.01660156,0.9853516,15.99951,15.99951,15.11768
291,-2.351226,0.253798,9.289976,-0.01318359,0.000976563,0.9970703,15.99951,15.99951,15.11768
293,-2.33686,0.263376,9.266033,-0.04052734,0.008789063,0.9931641,15.99951,15.99951,15.11768
295,-2.341649,0.277742,9.251667,0.01025391,0.02832031,0.9736328,15.99951,15.99951,15.11768
297,-2.312917,0.253798,9.285188,-0.01708984,0.000976563,0.9814453,15.99951,15.99951,15.11768
299,-2.303339,0.263376,9.261244,0.03808594,0.01269531,0.9658203,15.99951,15.99951,15.12256
301,-2.317705,0.263376,9.299553,-0.01708984,0.01269531,0.9931641,15.99951,15.99951,15.12256
303,-2.303339,0.268164,9.304342,-0.01318359,0.01660156,1.000977,15.99951,15.99951,15.12256
305,-2.317705,0.268164,9.280398,-0.008789063,0.004882813,0.9931641,15.99951,15.99951,15.11475
307,-2.298551,0.24901,9.266033,-0.02490234,0.004882813,0.9892578,15.99951,15.99951,15.11475
309,0.181969,1.810109,8.724916,-0.01318359,-0.02197266,0.9892578,15.99951,15.99951,15.11475
311,-1.91067,-0.287319,9.424058,0.002441406,0.008789063,0.9931641,15.99951,15.99951,15.11475
313,-1.297723,-0.229855,9.036178,0.006347656,-0.02197266,0.9892578,15.99951,15.99951,15.1123
315,8.006618,7.652258,7.7193,-0.000976563,0.01269531,1.000977,15.99951,15.99951,15.1123
318,4.793436,-2.58587,11.981195,0.002441406,0.03613281,1.020996,15.99951,15.99951,15.1123
320,-2.044752,2.978539,9.850247,0.01025391,0.008789063,0.9931641,15.99951,15.99951,15.11768
322,-0.818859,4.055984,8.360978,0.002441406,0.02050781,0.9931641,15.99951,15.99951,15.11768
324,-1.268992,1.307301,6.986637,0.01806641,0.000976563,0.9736328,15.99951,15.99951,15.11768
326,2.016021,6.58439,9.050544,-0.008789063,0.01269531,0.9853516,15.99951,15.99951,15.11768
328,-0.967307,3.443038,10.300381,0.002441406,0.000976563,1.008789,15.99951,15.99951,15.10449
330,2.523617,2.197989,12.196685,-0.008789063,0.01269531,1.020996,15.99951,15.99951,15.10449
332,-0.560272,6.775936,5.147796,-0.004882813,0.004882813,1.000977,15.99951,15.99951,15.10449
334,15.18959,-3.7543,75.852173,0.002441406,0.000976563,0.9931641,15.99951,15.99951,15.10449
336,62.252415,46.220024,44.074711,-0.01708984,-0.01416016,0.9892578,15.99951,15.99951,15.10449
338,-10.803188,-6.742415,75.87133,0.02587891,0.01269531,0.9970703,15.99951,15.99951,15.10449
340,1.915459,3.332899,77.365387,-0.01318359,0.01269531,1.000977,15.99951,15.99951,15.12012
342,-20.610338,-17.124203,69.684395,-0.008789063,-0.006347656,0.9892578,15.99951,15.99951,15.12012
344,-12.795266,-9.270822,72.74913,-0.02099609,0.04443359,0.9853516,15.99951,15.99951,15.12012
346,-15.860001,-6.416788,74.568817,-0.01708984,0.01269531,1.020996,15.99951,15.99951,15.12012
348,-16.223938,-6.51256,74.568817,-0.004882813,0.004882813,1.024902,15.99951,15.99951,15.1123
351,-16.415483,-6.225242,74.415581,-0.008789063,0.01660156,1.000977,15.99951,15.99951,15.1123
353,-16.492102,-6.091159,73.898407,-0.008789063,0.02441406,1.004883,15.99951,15.99951,15.1123
355,-17.507296,-5.171739,74.702896,0.006347656,0.02050781,1.013184,15.99951,15.99951,15.10693
357,-16.760265,-5.59314,74.741211,0.006347656,0.05224609,0.9931641,15.99951,15.99951,15.10693
359,-17.526449,-5.267512,74.070801,0.01806641,-0.006347656,1.000977,15.99951,15.99951,15.10693
361,-16.836884,-5.018503,74.20488,0.006347656,0.01660156,1.024902,15.99951,15.99951,15.10693
363,-16.951813,-5.478213,74.54966,-0.01708984,0.01269531,1.01709,15.99951,15.99951,15.11475
365,-17.143358,-5.420749,74.262344,-0.02099609,0.03613281,0.9931641,15.99951,15.99951,15.11475
367,-17.162512,-5.573986,74.377274,-0.008789063,0.02441406,0.9853516,15.99951,15.99951,15.11475
369,-17.315748,-5.13343,74.089951,0.01025391,-0.002441406,0.9614258,15.99951,15.99951,15.12012
371,-17.06674,-5.497367,75.239227,0.002441406,0.004882813,1.000977,15.99951,15.99951,15.12012
373,-17.23913,-5.401594,74.338959,0.006347656,0.01660156,0.9853516,15.99951,15.99951,15.12012
375,-16.836884,-5.324976,73.87925,-0.01318359,0.008789063,0.9892578,15.99951,15.99951,15.11768
377,-17.105049,-5.344131,74.492203,-0.02490234,0.05224609,0.9853516,15.99951,15.99951,15.11768
379,-16.875193,-4.999348,73.649399,0.01025391,0.02441406,0.9658203,15.99951,15.99951,15.11768
381,-17.48814,-5.286667,73.630241,-0.004882813,0.01660156,0.9892578,15.99951,15.99951,15.11768
384,-17.277439,-5.746377,74.587975,0.04199219,0.000976563,1.008789,15.99951,15.99951,15.1123
386,-17.507296,-5.152585,74.568817,-0.03662109,0.01660156,1.008789,15.99951,15.99951,15.1123
388,-17.583914,-5.190894,74.473045,-0.02099609,0.02050781,0.9892578,15.99951,15.99951,15.1123
390,-17.73715,-5.13343,74.702896,-0.000976563,0.03613281,0.9892578,15.99951,15.99951,15.11475
392,-17.48814,-5.075966,74.358116,-0.03271484,0.02050781,1.004883,15.99951,15.99951,15.11475
394,-17.354057,-5.344131,74.243187,-0.004882813,-0.006347656,0.9931641,15.99951,15.99951,15.11475
396,-17.373213,-5.478213,73.936714,-0.02099609,0.01269531,1.004883,15.99951,15.99951,15.11475
398,-17.162512,-5.114275,74.358116,-0.02880859,0.03222656,1.028809,15.99951,15.99951,15.11475
400,-17.545605,-4.88442,74.453888,-0.04443359,0.000976563,1.036621,15.99951,15.99951,15.11475
402,-17.756304,-5.324976,74.894447,0.006347656,0.008789063,1.000977,15.99951,15.99951,15.11475
404,-17.545605,-4.941884,74.645439,0.01416016,0.02832031,0.9853516,15.99951,15.99951,15.12256
406,-17.315748,-4.903575,74.396423,0.002441406,0.000976563,1.008789,15.99951,15.99951,15.12256
408,-19.135435,-7.585217,72.998138,-0.02490234,-0.002441406,1.004883,15.99951,15.99951,15.12256
410,-21.146667,-2.949807,72.231956,0.01416016,0.004882813,1.032715,15.99951,15.99951,15.10449
412,-22.315098,-5.190894,74.626282,-0.000976563,0.01660156,1.013184,15.99951,15.99951,15.10449
416,-18.522488,9.175049,73.304611,0.002441406,-0.002441406,0.9658203,15.99951,15.99951,15.10449
419,-12.048237,12.967657,80.908989,-0.000976563,0.004882813,1.004883,15.99951,15.99951,15.10449
421,-16.109011,9.653913,84.069496,-0.02490234,0.03222656,1.008789,15.99951,15.99951,15.11768
423,-23.349445,2.949807,65.010674,-0.04052734,0.01660156,0.9853516,15.99951,15.99951,15.11768
425,-22.315098,7.431981,75.162613,-0.02490234,0.02050781,0.9931641,15.99951,15.99951,15.11768
427,-17.660532,6.129469,73.151375,-0.02490234,0.000976563,1.028809,15.99951,15.99951,15.10938
429,-21.338213,9.730532,66.734589,0.01806641,0.03222656,1.004883,15.99951,15.99951,15.10938
431,-20.28471,9.922077,63.97633,-0.02099609,0.01660156,1.008789,15.99951,15.99951,15.10938
433,-18.867271,2.758261,62.807899,-0.01318359,0.02832031,1.008789,15.99951,15.99951,15.1123
435,-17.871233,12.14401,75.20092,0.002441406,0.02832031,1.008789,15.99951,15.99951,15.1123
437,-21.165821,6.79988,82.671211,0.04589844,0.008789063,0.9931641,15.99951,15.99951,15.1123
439,-20.380484,-0.976884,72.327728,-0.004882813,0.01660156,1.024902,15.99951,15.99951,15.1123
441,-12.450483,10.803188,81.062225,0.02197266,-0.01416016,0.9970703,15.99951,15.99951,15.11768
443,-16.702803,11.454445,72.787437,-0.04833984,0.03222656,1.000977,15.99951,15.99951,15.11768
445,-14.634107,-0.229855,74.166573,-0.008789063,0.01269531,1.000977,15.99951,15.99951,15.11768
447,-17.392368,-2.221932,73.821785,-0.000976563,0.02050781,1.028809,15.99951,15.99951,15.11768
449,-16.089855,-3.926691,72.710823,-0.01318359,0.02050781,1.032715,15.99951,15.99951,15.11768
452,-13.197513,-5.880459,75.852173,0.002441406,-0.006347656,1.004883,15.99951,15.99951,15.11768
454,-12.163164,-5.84215,74.453888,0.01806641,0.01269531,0.9853516,15.99951,15.99951,15.11768
456,-12.278092,-5.976232,75.392464,-0.02490234,0.02050781,0.9970703,15.99951,15.99951,15.10449
458,-13.829614,-4.156546,75.20092,-0.01318359,0.01269531,1.020996,15.99951,15.99951,15.10449
460,-12.891039,-4.137392,75.085991,-0.02099609,0.06396484,1.008789,15.99951,15.99951,15.10449
462,-12.431329,-5.439903,75.066833,0.002441406,0.02050781,1.004883,15.99951,15.99951,15.10449
464,-13.408213,-6.857343,75.354156,0.01416016,-0.006347656,0.9736328,15.99951,15.99951,15.10449
466,-12.546256,-3.581908,74.453888,-0.008789063,0.004882813,0.9658203,15.99951,15.99951,15.10449
468,-11.282053,-5.248358,75.833023,-0.000976563,0.000976563,1.01709,15.99951,15.99951,15.11475
470,-12.335556,-10.764879,73.706863,0.006347656,0.004882813,1.004883,15.99951,15.99951,15.11475
472,-15.132126,-10.037005,75.028526,-0.000976563,0.01269531,0.9892578,15.99951,15.99951,15.11475
474,-17.354057,-10.075315,76.54174,-0.02880859,0.004882813,1.028809,15.99951,15.99951,15.11475
476,-18.139397,-1.992077,68.592583,-0.01708984,0.02441406,0.9970703,15.99951,15.99951,15.10693
478,-22.16186,-3.371208,72.021255,0.006347656,0.000976563,1.000977,15.99951,15.99951,15.10693
480,-22.851425,-7.451135,68.152031,-0.000976563,0.03613281,0.9775391,15.99951,15.99951,15.10693
482,-23.847464,-10.649952,90.17981,-0.01318359,0.03613281,0.9970703,15.99951,15.99951,15.10938
485,-7.815073,13.944541,74.300652,-0.000976563,-0.02197266,1.036621,15.99951,15.99951,15.10938
487,-19.461063,-3.160507,67.883865,0.01025391,0.02050781,0.9892578,15.99951,15.99951,15.10938
489,-24.288019,6.014541,85.735947,-0.01318359,0.02441406,1.000977,15.99951,15.99951,15.10938
491,-19.403599,-2.375169,64.685051,-0.01318359,0.000976563,1.000977,15.99951,15.99951,15.11475
493,-26.031088,-3.601063,68.362732,-0.004882813,0.000976563,1.000977,15.99951,15.99951,15.11475
495,-31.394373,-14.538334,77.518623,0.002441406,0.000976563,1.032715,15.99951,15.99951,15.11475
497,-9.59645,0.45971,74.702896,-0.02490234,0.01660156,0.9892578,15.99951,15.99951,15.10938
499,-14.749034,-1.666449,68.554276,0.01025391,0.02050781,0.9931641,15.99951,15.99951,15.10938
501,-25.992779,-10.075315,85.640167,-0.008789063,0.01660156,1.000977,15.99951,15.99951,15.10938
503,-15.668454,10.918116,70.201569,-0.02490234,0.01660156,0.9775391,15.99951,15.99951,15.10449
505,-19.499372,-7.853382,56.084637,-0.000976563,-0.01416016,1.024902,15.99951,15.99951,15.10449
507,-27.122898,-11.856691,75.162613,-0.02490234,0.004882813,1.000977,15.99951,15.99951,15.10449
509,-43.519226,-15.036353,80.334351,0.01416016,0.01269531,0.9853516,15.99951,15.99951,15.10449
511,-13.98285,-12.871884,56.697586,-0.004882813,0.004882813,1.000977,15.99951,15.99951,15.12012
513,-10.994735,8.217319,68.496811,-0.004882813,0.008789063,1.008789,15.99951,15.99951,15.12012
515,-18.828962,-17.334904,140.518066,-0.008789063,0.004882813,1.000977,15.99951,15.99951,15.12012
518,-51.410919,14.002005,89.643478,-0.03271484,0.01269531,1.013184,15.99951,15.99951,15.10449
520,-17.085894,0.019155,44.706814,-0.04443359,0.004882813,1.024902,15.99951,15.99951,15.10449
522,-26.050241,-6.186933,71.197609,-0.000976563,0.01660156,1.020996,15.99951,15.99951,15.10449
524,-2.030386,11.033044,82.80529,0.01025391,0.02832031,0.9970703,15.99951,15.99951,15.12012
526,-13.848768,2.719952,62.635509,-0.000976563,-0.002441406,1.008789,15.99951,15.99951,15.12012
528,-16.798574,-10.97558,90.256424,0.01025391,0.000976563,0.9931641,15.99951,15.99951,15.12012
530,-45.81778,-9.845459,90.141502,0.002441406,0.004882813,0.9970703,15.99951,15.99951,15.12012
532,-57.770241,3.237126,86.617058,0.02197266,0.01269531,1.008789,15.99951,15.99951,15.10938
534,-25.571377,-7.949155,66.179108,-0.02099609,0.01660156,1.013184,15.99951,15.99951,15.10938
536,-12.124855,-4.539638,76.158646,0.01025391,-0.01025391,0.9814453,15.99951,15.99951,15.10938
538,-10.171087,3.486135,69.435387,0.002441406,-0.006347656,0.9736328,15.99951,15.99951,15.10693
540,-13.254976,-1.340821,76.158646,-0.03271484,0.008789063,1.004883,15.99951,15.99951,15.10693
542,-7.68099,-4.348092,81.46447,-0.01708984,0.02050781,1.004883,15.99951,15.99951,15.10693
544,-18.081932,1.723913,74.760361,-0.03271484,0.004882813,1.01709,15.99951,15.99951,15.10693
546,-18.733189,-2.183623,64.665894,-0.008789063,0.02441406,1.004883,15.99951,15.99951,15.09912
549,-17.832924,-6.435942,68.841599,-0.004882813,-0.03369141,1.04834,15.99951,15.99951,15.09912
552,-19.269518,-1.589831,96.749832,-0.01318359,-0.006347656,0.9775391,15.99951,15.99951,15.09912
554,-14.672416,3.581908,74.511353,-0.02490234,0.000976563,0.9970703,15.99951,15.99951,15.11475
556,-0.383092,0.670411,63.612392,-0.004882813,0.000976563,1.020996,15.99951,15.99951,15.11475
558,-24.402946,-0.612947,117.168625,0.02197266,0.03222656,0.9970703,15.99951,15.99951,15.11475
560,-26.893044,21.299904,59.685699,-0.000976563,0.02832031,1.000977,15.99951,15.99951,15.1123
562,-23.713383,6.742415,70.642128,-0.000976563,0.004882813,1.024902,15.99951,15.99951,15.1123
564,-25.398985,6.148623,75.22007,0.002441406,0.03222656,1.004883,15.99951,15.99951,15.1123
566,-24.728575,11.895,82.575439,-0.01708984,0.004882813,1.024902,15.99951,15.99951,15.1123
568,-23.617609,-5.439903,67.711472,0.01025391,0.03613281,1.028809,15.99951,15.99951,15.11475
570,-13.408213,1.206739,71.714783,-0.01708984,-0.01025391,0.9736328,15.99951,15.99951,15.11475
572,-14.23186,2.068696,66.983597,0.03369141,0.01269531,0.9970703,15.99951,15.99951,15.11475
574,-12.661183,-3.141353,71.120995,-0.004882813,0.008789063,1.004883,15.99951,15.99951,15.12012
576,-19.499372,-6.435942,89.624329,-0.02490234,0.008789063,1.013184,15.99951,15.99951,15.12012
578,-25.130821,9.09843,62.616352,-0.02880859,0.01660156,1.008789,15.99951,15.99951,15.12012
580,-17.507296,10.037005,66.447273,-0.008789063,0.004882813,1.01709,15.99951,15.99951,15.12012
582,-20.514566,-2.08785,71.025215,-0.008789063,0.01269531,1.004883,15.99951,15.99951,15.1123
585,-25.284058,0.172391,79.242538,0.02197266,-0.006347656,0.9970703,15.99951,15.99951,15.1123
587,-13.638068,6.589179,68.669205,-0.02099609,-0.01806641,0.9931641,15.99951,15.99951,15.1123
589,-16.664494,3.237126,67.749786,-0.02099609,0.000976563,0.9970703,15.99951,15.99951,15.10938
591,-13.254976,2.643333,69.761017,0.01806641,0.01660156,1.01709,15.99951,15.99951,15.10938
593,-14.749034,2.643333,85.525246,-0.000976563,0.004882813,0.9736328,15.99951,15.99951,15.10938
595,-20.859348,5.267512,68.860748,-0.008789063,0.03613281,0.9536133,15.99951,15.99951,15.11768
597,-16.81773,2.643333,68.650047,-0.008789063,-0.006347656,1.020996,15.99951,15.99951,15.11768
599,-18.426716,8.849421,80.889832,-0.008789063,-0.002441406,1.01709,15.99951,15.99951,15.11768
601,-9.768841,24.460411,82.958527,-0.008789063,0.02050781,0.9931641,15.99951,15.99951,15.11768
603,-8.466329,10.803188,69.473694,-0.02880859,0.02050781,1.004883,15.99951,15.99951,15.1123
605,-11.626836,8.42802,70.278191,0.02197266,0.02050781,1.020996,15.99951,15.99951,15.1123
607,-10.822343,11.18628,85.831718,0.002441406,0.01660156,0.9775391,15.99951,15.99951,15.1123
609,-22.238478,17.411522,63.612392,-0.02099609,0.01660156,0.9931641,15.99951,15.99951,15.1123
611,-14.634107,10.343478,65.547005,-0.000976563,0.01660156,0.9931641,15.99951,15.99951,15.1123
613,-17.334904,9.366594,82.288116,0.002441406,-0.002441406,0.9892578,15.99951,15.99951,15.1123
615,6.05285,29.536377,84.510048,-0.03271484,0.01660156,0.9970703,15.99951,15.99951,15.1123
618,-8.313092,14.270169,67.27092,0.01025391,0.01660156,1.000977,15.99951,15.99951,15.11475
620,-8.945193,-3.04558,64.455193,0.01416016,0.008789063,1.008789,15.99951,15.99951,15.11475
622,-11.760918,11.205435,96.539131,0.002441406,0.03613281,0.9931641,15.99951,15.99951,15.11475
624,-21.912851,18.790653,68.056259,-0.02099609,0.04443359,1.000977,15.99951,15.99951,15.1123
626,-12.39302,7.834227,64.704201,-0.03271484,-0.01025391,1.008789,15.99951,15.99951,15.1123
628,-34.363335,-4.079927,91.367393,0.02197266,-0.002441406,1.004883,15.99951,15.99951,15.1123
630,-11.856691,18.139397,75.296692,0.01025391,-0.01416016,1.008789,15.99951,15.99951,15.1123
632,-9.328285,-1.149275,54.839592,-0.008789063,0.004882813,1.000977,15.99951,15.99951,15.1123
634,-12.795266,0.306473,103.300705,-0.02490234,0.01660156,0.9853516,15.99951,15.99951,15.1123
636,-18.752344,12.891039,63.210144,-0.04443359,0.004882813,1.004883,15.99951,15.99951,15.1123
638,-10.362633,12.124855,68.477661,0.002441406,-0.002441406,1.008789,15.99951,15.99951,15.1123
640,-22.487488,10.898961,93.244545,0.02978516,0.02832031,0.9853516,15.99951,15.99951,15.1123
642,-10.439251,8.906884,68.975677,-0.008789063,0.01660156,1.008789,15.99951,15.99951,15.1123
644,-12.201473,5.478213,66.772896,0.02978516,0.04052734,1.008789,15.99951,15.99951,15.10449
646,-15.572681,7.546908,99.239929,-0.01318359,0.01269531,1.020996,15.99951,15.99951,15.10449
648,-28.253019,8.179009,59.417538,-0.03662109,-0.01416016,1.01709,15.99951,15.99951,15.10449
651,-18.235168,13.31244,76.484276,0.002441406,-0.01806641,1.020996,15.99951,15.99951,15.09375
653,-14.461715,21.529758,86.099884,0.002441406,0.02050781,1.008789,15.99951,15.99951,15.09375
655,-11.569372,24.517876,49.380531,-0.02099609,0.01269531,0.9775391,15.99951,15.99951,15.09375
657,-13.427367,8.083237,78.610435,-0.02880859,0.01269531,1.004883,15.99951,15.99951,15.09375
659,-15.994082,6.991425,80.851524,-0.02490234,0.01269531,1.024902,15.99951,15.99951,15.10938
661,-12.412174,8.868575,61.045677,-0.04052734,-0.01806641,0.9853516,15.99951,15.99951,15.10938
663,-12.776112,2.911498,79.836327,-0.01708984,-0.01025391,0.9892578,15.99951,15.99951,15.10938
665,-21.089203,11.128817,82.096573,0.02197266,0.01660156,0.9853516,15.99951,15.99951,15.11768
667,-5.420749,19.250362,84.471741,-0.01708984,0.008789063,1.004883,15.99951,15.99951,15.11768
669,-7.317053,1.091812,74.568817,-0.02490234,0.03222656,0.9853516,15.99951,15.99951,15.11768
671,-9.922077,-4.175701,91.195,-0.02880859,0.03222656,0.9775391,15.99951,15.99951,15.11768
673,-30.58988,12.60372,66.753746,-0.01708984,0.02050781,0.9775391,15.99951,15.99951,15.11768
675,-17.871233,3.850073,64.455193,0.02197266,0.01269531,1.008789,15.99951,15.99951,15.11768
677,-8.332247,7.336208,59.398384,0.02978516,0.01660156,1.013184,15.99951,15.99951,15.11768
679,-29.17244,15.840846,72.251114,-0.004882813,0.004882813,0.9418945,15.99951,15.99951,15.11768
683,-12.278092,9.309131,66.408958,-0.008789063,-0.006347656,0.9970703,15.99951,15.99951,15.11768
686,-28.46372,-2.509251,78.936066,0.002441406,0.02832031,1.024902,15.99951,15.99951,15.11768
688,-31.164516,2.068696,70.986908,-0.02099609,0.000976563,1.036621,15.99951,15.99951,15.10449
690,-23.100435,-1.723913,69.588623,0.01416016,-0.002441406,1.008789,15.99951,15.99951,15.10449
692,-22.219324,-2.030386,80.755753,0.01025391,0.01269531,1.008789,15.99951,15.99951,15.10449
694,-15.955773,18.867271,91.252464,-0.02490234,-0.01806641,1.004883,15.99951,15.99951,15.10449
696,-14.289324,2.911498,71.714783,-0.01708984,0.01269531,0.9614258,15.99951,15.99951,15.1123
698,-13.638068,-1.16843,60.85413,-0.04052734,-0.002441406,1.020996,15.99951,15.99951,15.1123
700,-13.025121,0.114928,79.185074,-0.01708984,0.008789063,1.013184,15.99951,15.99951,15.1123
702,-29.574686,6.397633,76.771599,0.01806641,0.01269531,0.9853516,15.99951,15.99951,15.10938
704,-17.468987,9.653913,65.987564,-0.02099609,0.01660156,0.9814453,15.99951,15.99951,15.10938
706,-16.128164,-1.838841,83.552322,-0.01318359,0.03613281,1.020996,15.99951,15.99951,15.10938
708,-19.077971,19.250362,79.970413,-0.004882813,0.000976563,1.020996,15.99951,15.99951,15.10938
710,-6.30186,7.374517,52.349495,-0.07226563,0.01269531,1.036621,15.99951,15.99951,15.11475
712,-23.790001,5.516522,103.090004,-0.004882813,0.01660156,0.9931641,15.99951,15.99951,15.11475
714,-20.935966,13.120893,63.037754,0.006347656,0.02050781,0.9853516,15.99951,15.99951,15.11475
716,-42.006016,14.193551,51.372608,-0.004882813,0.008789063,1.013184,15.99951,15.99951,15.11475
719,-10.97558,24.07732,97.267006,-0.000976563,-0.002441406,1.004883,15.99951,15.99951,15.11475
721,-13.274131,3.869227,54.130871,-0.01708984,0.000976563,0.9697266,15.99951,15.99951,15.11475
723,-12.507947,-4.539638,76.580048,-0.02490234,0.03222656,1.000977,15.99951,15.99951,15.10693
725,-31.700846,25.992779,114.103889,-0.01708984,0.01269531,0.9814453,15.99951,15.99951,15.10693
727,-9.634759,-3.390362,37.485531,0.002441406,-0.01025391,0.9853516,15.99951,15.99951,15.10693
729,-14.423406,-6.742415,81.100533,-0.01318359,0.008789063,1.087891,15.99951,15.99951,15.10693
731,-7.910845,21.127512,78.074104,-0.004882813,0.02832031,1.036621,15.99951,15.99951,15.10156
733,-9.09843,0.363937,60.18372,-0.02099609,0.000976563,0.9970703,15.99951,15.99951,15.10156
735,-12.450483,1.034348,91.980339,-0.008789063,0.01269531,0.9814453,15.99951,15.99951,15.10156
737,-32.428719,5.075966,78.131569,-0.000976563,0.01660156,1.032715,15.99951,15.99951,15.11475
739,-23.119589,0.287319,58.38319,-0.01708984,0.008789063,0.9814453,15.99951,15.99951,15.11475
741,-34.727272,-2.509251,79.01268,-0.008789063,0.02050781,0.9853516,15.99951,15.99951,15.11475
743,-18.330942,10.305169,79.146767,-0.02490234,0.000976563,1.024902,15.99951,15.99951,15.11475
745,-10.305169,6.378479,68.841599,-0.004882813,0.02441406,0.9931641,15.99951,15.99951,15.11475
747,-16.913502,3.830918,71.906326,0.01025391,0.000976563,1.020996,15.99951,15.99951,15.11475
749,-24.99674,9.404903,95.504784,0.01416016,0.000976563,1.04834,15.99951,15.99951,15.11475
752,-22.200169,10.554179,63.267609,0.01806641,0.01660156,0.9970703,15.99951,15.99951,15.11768
754,-25.16913,5.13343,68.669205,0.002441406,0.02050781,1.013184,15.99951,15.99951,15.11768
756,-20.610338,20.495411,85.333694,-0.02099609,0.008789063,0.9970703,15.99951,15.99951,15.11768
758,-16.626184,21.721304,57.808552,-0.000976563,0.008789063,1.008789,15.99951,15.99951,15.12012
760,-11.320362,14.576643,66.715439,-0.02099609,0.01660156,1.004883,15.99951,15.99951,15.12012
762,-19.250362,13.216667,80.200264,0.01416016,0.01660156,1.000977,15.99951,15.99951,15.12012
764,-19.537682,18.024469,71.982948,0.002441406,-0.02587891,0.9970703,15.99951,15.99951,15.12012
766,-14.94058,12.39302,67.788094,-0.004882813,-0.002441406,0.9853516,15.99951,15.99951,15.10156
768,-14.327633,22.276787,82.690361,0.002441406,0.01660156,1.01709,15.99951,15.99951,15.10156
770,0.766184,25.762922,63.497463,-0.01318359,0.000976563,1.000977,15.99951,15.99951,15.10156
772,-9.34744,12.929348,69.128914,0.01025391,0.000976563,1.013184,15.99951,15.99951,15.12012
774,-18.752344,13.752995,80.181114,0.01806641,0.004882813,0.9970703,15.99951,15.99951,15.12012
776,-24.268866,21.472296,78.380577,-0.01318359,0.008789063,0.9814453,15.99951,15.99951,15.12012
778,-16.913502,11.511909,63.420845,-0.01318359,0.02441406,1.01709,15.99951,15.99951,15.11475
780,-17.679686,14.327633,80.621666,-0.008789063,0.000976563,0.9892578,15.99951,15.99951,15.11475
782,-12.14401,18.196859,77.786789,-0.01318359,0.01660156,0.9697266,15.99951,15.99951,15.11475
785,-10.630797,16.051546,65.355461,-0.01318359,0.01660156,1.000977,15.99951,15.99951,15.11475
787,-21.548914,26.011932,97.650101,-0.02099609,0.02441406,1.008789,15.99951,15.99951,15.1123
789,-18.886425,22.276787,71.255074,-0.000976563,0.01269531,1.013184,15.99951,15.99951,15.1123
791,-20.974276,34.593189,65.317154,-0.008789063,0.01269531,0.9892578,15.99951,15.99951,15.1123
793,-14.270169,25.571377,92.957222,-0.03271484,0.008789063,0.9736328,15.99951,15.99951,15.09375
795,-20.897657,15.610991,77.00145,-0.01318359,0.004882813,0.9970703,15.99951,15.99951,15.09375
797,-6.646643,14.959735,63.899712,-0.000976563,-0.006347656,0.9970703,15.99951,15.99951,15.09375
799,-15.917464,16.875193,92.727371,-0.008789063,0.000976563,0.9931641,15.99951,15.99951,15.09375
801,-15.572681,18.216015,74.051643,-0.008789063,0.02832031,1.020996,15.99951,15.99951,15.10938
803,-15.381136,14.212706,68.037102,-0.02880859,0.01269531,1.004883,15.99951,15.99951,15.10938
805,-18.081932,13.580604,87.881256,-0.008789063,-0.01025391,1.004883,15.99951,15.99951,15.10938
807,-15.36198,12.201473,73.687706,-0.02880859,0.01269531,0.9814453,15.99951,15.99951,15.10938
809,-7.7193,6.684952,63.612392,-0.02099609,0.01269531,1.004883,15.99951,15.99951,15.10938
811,-13.695532,11.090508,87.019302,-0.000976563,0.01269531,1.008789,15.99951,15.99951,15.10938
813,-16.626184,14.327633,78.916908,-0.01318359,0.02441406,1.028809,15.99951,15.99951,15.10449
816,-13.140048,13.52314,66.351501,-0.004882813,0.01660156,1.004883,15.99951,15.99951,15.10449
819,-17.832924,8.88773,86.980995,-0.01708984,-0.002441406,0.9814453,15.99951,15.99951,15.10449
821,-9.615604,12.948503,84.529205,-0.000976563,0.008789063,1.013184,15.99951,15.99951,15.10449
823,-9.002657,8.63872,66.351501,-0.008789063,0.01269531,0.9892578,15.99951,15.99951,15.1123
825,-15.6493,2.145314,72.691666,-0.02099609,0.01660156,1.008789,15.99951,15.99951,15.1123
827,-14.844807,4.175701,89.605171,0.01416016,0.000976563,1.004883,15.99951,15.99951,15.1123
829,-22.046932,13.77215,76.235268,-0.02880859,0.05224609,1.028809,15.99951,15.99951,15.10449
831,-20.131474,4.194855,67.519928,0.01025391,0.02050781,0.9853516,15.99951,15.99951,15.10449
833,-19.097126,12.412174,87.364082,-0.008789063,0.01660156,1.004883,15.99951,15.99951,15.10449
835,-12.814421,4.041618,67.27092,-0.01318359,-0.01806641,0.9970703,15.99951,15.99951,15.10449
837,-5.899613,13.197513,62.137489,-0.008789063,-0.002441406,1.024902,15.99951,15.99951,15.10693
839,-14.174397,9.692223,78.227341,-0.02099609,0.004882813,1.024902,15.99951,15.99951,15.10693
841,-13.293285,9.443213,80.334351,-0.004882813,0.02832031,0.9853516,15.99951,15.99951,15.10693
843,-15.840846,11.167126,54.609734,0.01025391,0.01269531,1.000977,15.99951,15.99951,15.11475
845,-20.380484,7.987464,80.3535,0.01025391,0.000976563,0.9892578,15.99951,15.99951,15.11475
847,-4.577947,13.159204,70.182419,0.01806641,0.02832031,0.9931641,15.99951,15.99951,15.11475
849,-10.72657,10.400942,61.141449,-0.03271484,-0.002441406,0.9931641,15.99951,15.99951,15.12012
852,-15.247053,9.462367,81.866714,-0.008789063,0.000976563,1.008789,15.99951,15.99951,15.12012
854,-18.618261,10.707416,79.204231,-0.000976563,0.02832031,1.000977,15.99951,15.99951,15.12012
856,-14.729879,21.472296,58.536427,-0.008789063,0.008789063,1.000977,15.99951,15.99951,15.12012
858,-22.564106,8.255629,77.518623,-0.008789063,0.02441406,0.9853516,15.99951,15.99951,15.11768
860,-9.309131,16.204782,71.044373,-0.02880859,0.01660156,1.008789,15.99951,15.99951,15.11768
862,-11.416136,7.987464,65.010674,-0.01708984,0.02441406,1.020996,15.99951,15.99951,15.11768
864,-14.404251,7.297899,73.266304,-0.02099609,0.01660156,0.9853516,15.99951,15.99951,15.1123
866,-23.042971,7.642681,95.179153,0.01416016,0.02441406,0.9931641,15.99951,15.99951,15.1123
868,-18.733189,12.297247,58.842899,-0.01708984,0.01660156,0.9697266,15.99951,15.99951,15.1123
870,-19.575991,10.860652,69.646088,-0.000976563,0.02050781,0.9775391,15.99951,15.99951,15.1123
872,-10.764879,11.43529,87.095917,-0.008789063,0.01660156,1.004883,15.99951,15.99951,15.1123
874,-5.018503,9.979541,76.982292,0.01025391,0.008789063,0.9697266,15.99951,15.99951,15.1123
876,-10.611643,6.857343,64.263649,-0.004882813,0.004882813,0.9853516,15.99951,15.99951,15.1123
878,-18.675724,11.760918,82.537125,0.002441406,0.004882813,1.000977,15.99951,15.99951,15.11768
880,-25.437296,20.572029,70.488892,0.002441406,0.02050781,0.9736328,15.99951,15.99951,15.11768
882,-20.188938,14.174397,63.6507,-0.03662109,0.01660156,1.024902,15.99951,15.99951,15.11768
885,-24.824348,-2.662488,76.65667,-0.004882813,0.004882813,1.013184,15.99951,15.99951,15.1123
887,-11.722609,20.514566,74.300652,-0.01318359,0.03222656,1.01709,15.99951,15.99951,15.1123
889,-10.113624,7.910845,72.519279,0.002441406,0.01660156,1.008789,15.99951,15.99951,15.1123
891,-10.994735,5.037657,69.28215,-0.01318359,0.03613281,0.9853516,15.99951,15.99951,15.1123
893,-15.936619,11.952464,84.682442,-0.01708984,0.008789063,1.000977,15.99951,15.99951,15.12012
895,-10.573334,13.274131,76.580048,0.006347656,-0.002441406,0.9892578,15.99951,15.99951,15.12012
897,-16.932657,8.811111,66.083336,-0.01708984,0.008789063,1.000977,15.99951,15.99951,15.12012
899,-18.94389,7.47029,77.307922,-0.01318359,-0.01416016,0.9970703,15.99951,15.99951,15.11475
901,-4.041618,14.385097,78.074104,-0.01708984,-0.006347656,0.9931641,15.99951,15.99951,15.11475
903,-1.666449,7.738454,76.867371,0.01806641,-0.002441406,0.9892578,15.99951,15.99951,15.11475
905,-11.43529,5.765532,74.741211,-0.000976563,0.03222656,0.9697266,15.99951,15.99951,15.11475
907,-8.983502,6.05285,75.967102,-0.02099609,-0.006347656,0.9853516,15.99951,15.99951,15.11475
909,-10.381787,6.072005,75.928795,-0.02490234,0.004882813,1.028809,15.99951,15.99951,15.11475
911,-21.050894,-7.25959,73.457848,0.01806641,0.03222656,1.036621,15.99951,15.99951,15.11475
913,-19.36529,6.570024,75.947945,-0.01318359,0.004882813,1.013184,15.99951,15.99951,15.10449
915,-15.247053,0.134082,72.519279,-0.008789063,0.01660156,0.9970703,15.99951,15.99951,15.10449
918,-20.476255,6.110314,83.360771,-0.05615234,0.02050781,1.032715,15.99951,15.99951,15.10449
920,-25.513914,19.346136,81.981644,0.01806641,0.01660156,0.9775391,15.99951,15.99951,15.11475
922,-9.021811,7.585217,63.995483,0.002441406,-0.006347656,1.020996,15.99951,15.99951,15.11475
924,-27.9657,-1.187585,82.364738,-0.03662109,0.03613281,0.9853516,15.99951,15.99951,15.11475
926,-22.41087,9.443213,83.169228,0.01416016,0.02050781,0.9931641,15.99951,15.99951,15.11475
928,-17.315748,8.696184,49.687004,0.006347656,0.000976563,0.9970703,15.99951,15.99951,15.1123
930,-26.797272,1.723913,86.291428,0.002441406,0.01660156,0.9931641,15.99951,15.99951,15.1123
932,-12.278092,3.447826,87.785484,-0.02099609,-0.01025391,1.013184,15.99951,15.99951,15.1123
934,-11.090508,6.206087,59.55162,-0.01318359,0.01269531,1.013184,15.99951,15.99951,15.1123
936,-21.472296,8.159855,83.207535,0.01025391,0.02832031,0.9931641,15.99951,15.99951,15.1123
938,-23.042971,18.350098,73.687706,0.01025391,0.000976563,0.9736328,15.99951,15.99951,15.1123
940,-14.634107,9.194203,57.789398,-0.02490234,0.03222656,0.9931641,15.99951,15.99951,15.12256
942,-17.622223,3.486135,86.636208,0.006347656,0.01660156,1.004883,15.99951,15.99951,15.12256
944,-14.059469,16.760265,72.672516,0.002441406,0.008789063,1.008789,15.99951,15.99951,15.12256
946,-8.198164,12.469638,57.674469,-0.000976563,0.02832031,0.9814453,15.99951,15.99951,15.12256
950,-20.093164,6.876498,85.142151,0.01806641,0.008789063,1.000977,15.99951,15.99951,15.12012
953,-19.671764,2.681643,91.597244,0.02197266,0.03613281,1.008789,15.99951,15.99951,15.12012
955,-11.43529,3.677681,56.984905,-0.01318359,-0.002441406,1.004883,15.99951,15.99951,15.12012
957,-40.090557,-3.811763,84.663284,0.002441406,0.01269531,0.9853516,15.99951,15.99951,15.11768
959,-12.239782,13.561449,85.218773,-0.000976563,0.01660156,1.028809,15.99951,15.99951,15.11768
961,-3.04558,14.097778,33.328987,-0.008789063,0.02050781,1.024902,15.99951,15.99951,15.11768
963,-13.638068,7.336208,79.127609,-0.02099609,-0.002441406,1.020996,15.99951,15.99951,15.11768
965,-17.468987,8.198164,85.984955,-0.004882813,-0.01025391,0.9697266,15.99951,15.99951,15.1123
967,-10.669106,7.431981,56.142101,0.02197266,-0.002441406,1.000977,15.99951,15.99951,15.1123
969,-21.03174,5.267512,84.510048,0.002441406,0.02050781,0.9814453,15.99951,15.99951,15.1123
971,-9.34744,17.143358,75.009377,-0.000976563,-0.02587891,0.9931641,15.99951,15.99951,15.10693
973,-20.074011,10.879807,59.015289,-0.004882813,0.008789063,1.008789,15.99951,15.99951,15.10693
975,-17.200821,5.688913,64.072105,0.01025391,0.03222656,1.000977,15.99951,15.99951,15.10693
977,-22.889734,16.81773,89.298698,0.01806641,0.000976563,1.008789,15.99951,15.99951,15.11768
979,-13.369904,5.363285,54.571426,-0.01318359,-0.01025391,1.004883,15.99951,15.99951,15.11768
981,-21.606377,14.174397,78.514664,-0.01318359,0.02441406,1.01709,15.99951,15.99951,15.11768
983,-15.419445,5.822995,77.940025,-0.01318359,-0.002441406,1.004883,15.99951,15.99951,15.11768
986,5.459058,12.469638,63.6507,-0.004882813,-0.002441406,1.008789,15.99951,15.99951,15.12012
988,-13.503985,8.485483,70.871979,-0.008789063,0.000976563,1.01709,15.99951,15.99951,15.12012
990,-19.882463,9.826304,91.788795,-0.000976563,0.02441406,1.000977,15.99951,15.99951,15.12012
992,-15.6493,17.200821,53.843552,-0.01708984,0.000976563,1.000977,15.99951,15.99951,15.11475
994,-17.105049,12.086546,83.322464,-0.04052734,0.01269531,0.9853516,15.99951,15.99951,15.11475
996,-13.618914,8.236473,82.843597,0.002441406,0.004882813,1.013184,15.99951,15.99951,15.11475
998,-2.375169,8.849421,66.466423,-0.01318359,0.004882813,1.004883,15.99951,15.99951,15.12012
1000,-17.334904,6.665797,78.6679,-0.01708984,-0.01416016,1.004883,15.99951,15.99951,15.12012
1002,-17.909542,9.845459,84.510048,0.01416016,-0.006347656,1.020996,15.99951,15.99951,15.12012
1004,-3.850073,19.556835,57.482922,-0.06445313,0.01269531,1.000977,15.99951,15.99951,15.12012
1006,-17.583914,9.136739,81.13884,-0.02490234,0.01269531,1.024902,15.99951,15.99951,15.1123
1008,-14.404251,14.270169,74.779518,-0.000976563,0.03222656,0.9853516,15.99951,15.99951,15.1123
1010,-4.022464,4.271473,68.132874,0.006347656,0.008789063,0.9892578,15.99951,15.99951,15.1123
1012,-16.089855,3.217971,76.407661,-0.004882813,0.000976563,0.9853516,15.99951,15.99951,15.11768
1014,-15.89831,0.536328,90.658676,-0.008789063,0.01660156,0.9931641,15.99951,15.99951,15.11768
1016,-0.536328,17.009275,67.328384,-0.02099609,0.008789063,1.004883,15.99951,15.99951,15.11768
1019,-17.641376,10.324324,73.515312,-0.02099609,0.01269531,1.008789,15.99951,15.99951,15.11768
1021,-12.14401,15.036353,81.905022,0.01416016,0.008789063,0.9892578,15.99951,15.99951,15.11475
1023,-11.856691,2.470942,64.81913,-0.008789063,0.02832031,0.9814453,15.99951,15.99951,15.11475
1025,-15.017199,12.488792,71.906326,0.01025391,0.000976563,1.004883,15.99951,15.99951,15.11475
1027,-18.848116,8.734493,82.498817,-0.008789063,0.02832031,0.9931641,15.99951,15.99951,15.11768
1029,-4.328937,16.070702,59.915558,0.01025391,0.01269531,0.9853516,15.99951,15.99951,15.11768
1031,-15.706763,10.784034,80.085342,0.006347656,-0.01025391,0.9892578,15.99951,15.99951,15.11768
1033,-3.466981,14.423406,86.042419,0.002441406,-0.01416016,1.020996,15.99951,15.99951,15.10938
1035,-9.692223,13.98285,48.82505,0.03369141,0.01269531,1.004883,15.99951,15.99951,15.10938
1037,-13.446522,10.822343,75.047684,0.006347656,0.01660156,1.008789,15.99951,15.99951,15.10938
1039,-18.139397,12.661183,88.532516,-0.02490234,0.02832031,0.9853516,15.99951,15.99951,15.10938
1041,-2.068696,9.941232,64.340263,0.002441406,0.02832031,1.013184,15.99951,15.99951,15.10693
1043,-16.204782,13.676377,84.58667,-0.004882813,0.000976563,1.028809,15.99951,15.99951,15.10693
1045,-16.721956,10.72657,77.250458,0.002441406,0.000976563,1.028809,15.99951,15.99951,15.10693
1047,-13.06343,1.819686,56.237877,-0.004882813,0.01269531,1.020996,15.99951,15.99951,15.11768
1049,-14.90227,10.611643,83.322464,-0.01318359,0.01660156,1.008789,15.99951,15.99951,15.11768
1052,-19.939928,20.897657,73.821785,-0.02880859,0.04833984,1.008789,15.99951,15.99951,15.11768
1054,-16.31971,12.967657,56.88913,0.01025391,0.01269531,1.000977,15.99951,15.99951,15.11768
1056,-20.399637,12.373865,72.653358,-0.01318359,0.008789063,1.008789,15.99951,15.99951,15.10693
1058,-13.887077,23.157898,86.731979,0.01806641,-0.002441406,0.9775391,15.99951,15.99951,15.10693
1060,-6.206087,15.4386,61.486233,-0.000976563,0.02050781,1.008789,15.99951,15.99951,15.10693
1062,-14.155242,17.219976,81.598549,-0.000976563,-0.002441406,0.9853516,15.99951,15.99951,15.09619
1064,-15.323671,18.40756,76.54174,-0.01708984,0.02050781,0.9814453,15.99951,15.99951,15.09619
1066,-10.879807,13.140048,60.605122,-0.02490234,0.05615234,1.004883,15.99951,15.99951,15.09619
1068,-9.787995,19.1929,82.441353,-0.03271484,0.01269531,1.020996,15.99951,15.99951,15.10938
1070,-6.895652,22.755653,85.448624,-0.000976563,-0.01025391,0.9931641,15.99951,15.99951,15.10938
1072,-5.84215,9.117584,62.405651,-0.02880859,-0.02197266,0.9775391,15.99951,15.99951,15.10938
1074,-11.741763,15.227899,82.498817,0.006347656,0.008789063,1.000977,15.99951,15.99951,15.10938
1076,-13.31244,19.920773,76.369347,-0.004882813,0.01269531,0.9892578,15.99951,15.99951,15.12012
1078,-15.227899,15.572681,67.079376,0.01416016,0.02050781,1.01709,15.99951,15.99951,15.12012
1080,-7.202126,16.166473,77.442009,0.03808594,0.01660156,0.9853516,15.99951,15.99951,15.12012
1083,-7.68099,20.514566,82.326424,-0.004882813,-0.01416016,1.01709,15.99951,15.99951,15.10693
1086,-6.397633,16.990122,69.128914,-0.02099609,0.02050781,0.9814453,15.99951,15.99951,15.10693
1088,-11.205435,16.128164,85.25708,0.01416016,-0.002441406,1.024902,15.99951,15.99951,15.10693
1090,-10.592488,21.012585,78.208191,-0.01318359,0.03222656,0.9814453,15.99951,15.99951,15.10693
1092,-5.957078,12.373865,63.784782,0.006347656,0.02050781,0.9814453,15.99951,15.99951,15.12256
1094,-3.237126,20.418793,92.19104,-0.02880859,0.008789063,1.000977,15.99951,15.99951,15.12256
1096,-0.996039,13.159204,77.058914,-0.02880859,-0.01025391,0.9697266,15.99951,15.99951,15.12256
1098,-0.632101,2.624179,64.340263,-0.02490234,0.008789063,1.01709,15.99951,15.99951,15.11475
1100,-14.155242,18.675724,94.010727,-0.000976563,0.01269531,1.036621,15.99951,15.99951,15.11475
1102,-10.075315,16.415483,73.936714,-0.02490234,-0.01025391,1.020996,15.99951,15.99951,15.11475
1104,-9.634759,6.263551,67.328384,-0.01708984,0.03222656,0.9736328,15.99951,15.99951,15.1123
1106,-12.297247,6.627488,83.13092,0.01806641,0.004882813,0.9892578,15.99951,15.99951,15.1123
1108,14.557488,28.195557,81.828407,0.002441406,0.01660156,1.024902,15.99951,15.99951,15.1123
1110,-6.321014,9.289976,61.639469,-0.000976563,-0.02587891,0.9814453,15.99951,15.99951,15.1123
1112,-14.768188,6.819034,89.643478,0.01025391,-0.006347656,1.013184,15.99951,15.99951,15.10693
1114,-17.181667,19.690918,94.949303,-0.03662109,-0.01416016,1.004883,15.99951,15.99951,15.10693
1116,-15.974928,8.313092,60.490192,0.02197266,0.004882813,0.9931641,15.99951,15.99951,15.10693
1119,-23.387754,3.466981,73.151375,-0.01708984,-0.02587891,1.020996,15.99951,15.99951,15.10449
1121,-7.738454,18.905581,85.774254,-0.008789063,0.01660156,0.9736328,15.99951,15.99951,15.10449
1123,-9.443213,9.251667,64.914902,0.006347656,0.01660156,0.9931641,15.99951,15.99951,15.10449
1125,-15.112971,11.454445,82.268959,0.002441406,0.04443359,1.000977,15.99951,15.99951,15.10449
1127,-14.710725,20.935966,78.189034,-0.008789063,0.02050781,1.000977,15.99951,15.99951,15.10449
1129,-11.990773,13.005966,63.746475,0.002441406,0.02050781,0.9970703,15.99951,15.99951,15.10449
1131,-13.810459,22.12355,93.091309,-0.008789063,0.01269531,0.9970703,15.99951,15.99951,15.10449
1133,-7.202126,15.227899,83.839638,-0.02490234,0.02441406,1.024902,15.99951,15.99951,15.1123
1135,-3.198817,12.297247,65.451233,0.01416016,-0.02197266,0.9892578,15.99951,15.99951,15.1123
1137,-9.040966,14.480869,84.241882,-0.000976563,0.02050781,1.013184,15.99951,15.99951,15.1123
1139,-15.630145,19.250362,79.223381,-0.000976563,-0.01806641,0.9931641,15.99951,15.99951,15.11475
1141,-12.431329,12.163164,57.21476,0.01806641,-0.002441406,1.004883,15.99951,15.99951,15.11475
1143,-13.638068,11.473599,86.770294,-0.008789063,0.000976563,0.9736328,15.99951,15.99951,15.11475
1145,-6.167778,22.12355,93.244545,-0.004882813,0.02050781,0.9853516,15.99951,15.99951,15.11475
1147,-3.869227,9.653913,59.628239,-0.008789063,0.03222656,1.013184,15.99951,15.99951,15.11475
1149,-14.998044,14.921425,83.514008,-0.000976563,0.01269531,1.008789,15.99951,15.99951,15.11475
1152,-14.097778,9.175049,64.531815,0.01806641,0.01269531,1.000977,15.99951,15.99951,15.11475
1154,-11.914155,9.711377,63.554928,-0.008789063,0.008789063,0.9775391,15.99951,15.99951,15.11475
1156,-11.837537,16.31971,93.378624,0.006347656,0.01269531,0.9892578,15.99951,15.99951,15.11475
1158,-7.776763,18.522488,77.020607,-0.01708984,0.02441406,0.9775391,15.99951,15.99951,15.11475
1160,-3.428672,15.285362,65.585312,-0.004882813,-0.02978516,0.9853516,15.99951,15.99951,15.1123
1162,-14.155242,24.326328,95.98365,0.01416016,0.01269531,0.9892578,15.99951,15.99951,15.1123
1164,-19.690918,25.245749,69.741859,0.01025391,0.004882813,0.9853516,15.99951,15.99951,15.1123
1166,-14.921425,19.212053,72.461815,0.002441406,0.004882813,0.9892578,15.99951,15.99951,15.1123
1168,-9.136739,13.197513,76.867371,0.002441406,0.01269531,0.9697266,15.99951,15.99951,15.10693
1170,-2.700797,17.23913,78.782829,-0.02880859,-0.01806641,0.9931641,15.99951,15.99951,15.10693
1172,-11.760918,5.803841,67.021912,-0.01318359,0.004882813,1.024902,15.99951,15.99951,15.10693
1174,-9.424058,18.177706,81.46447,0.01025391,0.03613281,0.9931641,15.99951,15.99951,15.11768
1176,-7.22128,13.350749,67.539085,0.006347656,0.02050781,1.008789,15.99951,15.99951,15.11768
1178,-7.336208,17.967005,65.700241,-0.01318359,-0.01806641,0.9970703,15.99951,15.99951,15.11768
1180,-12.910193,21.223286,88.283501,-0.004882813,-0.006347656,0.9775391,15.99951,15.99951,15.11768
1182,-6.742415,16.587875,73.304611,0.006347656,0.000976563,1.004883,15.99951,15.99951,15.11475
1185,-5.248358,11.914155,64.340263,0.002441406,-0.002441406,1.004883,15.99951,15.99951,15.11475
1187,-11.875846,16.587875,80.564201,0.01806641,0.000976563,1.008789,15.99951,15.99951,15.11475
1189,-26.720652,24.651957,79.357468,0.01025391,-0.01416016,0.9892578,15.99951,15.99951,15.10449
1191,-21.682995,13.120893,59.264301,0.006347656,0.01660156,0.9892578,15.99951,15.99951,15.10449
1193,-9.175049,20.188938,81.426163,-0.02490234,-0.01806641,0.9931641,15.99951,15.99951,15.10449
1195,-23.196209,28.482874,95.868721,-0.02490234,0.01660156,0.9970703,15.99951,15.99951,15.10156
1197,-6.704106,10.554179,64.761665,0.002441406,-0.002441406,1.01709,15.99951,15.99951,15.10156
1199,-11.167126,15.668454,85.429466,0.01025391,0.004882813,0.9775391,15.99951,15.99951,15.10156
1201,-17.315748,20.572029,78.610435,-0.000976563,0.04833984,0.9931641,15.99951,15.99951,15.10156
1203,-7.949155,17.603067,59.55162,-0.01318359,0.02050781,1.020996,15.99951,15.99951,15.11768
1205,-11.090508,17.392368,86.846909,0.01806641,0.004882813,0.9853516,15.99951,15.99951,15.11768
1207,-10.094469,26.854734,79.434082,0.006347656,0.008789063,0.9853516,15.99951,15.99951,15.11768
1209,-8.523792,7.106353,59.800629,-0.000976563,-0.006347656,1.024902,15.99951,15.99951,15.10938
1211,-12.009928,18.177706,88.647438,0.01416016,-0.02197266,0.9931641,15.99951,15.99951,15.10938
1213,-14.212706,19.595144,72.902367,-0.008789063,0.008789063,1.036621,15.99951,15.99951,15.10938
1217,-13.101739,11.895,53.537079,-0.02099609,-0.002441406,0.9658203,15.99951,15.99951,15.10938
1220,-14.921425,14.078624,86.578743,-0.008789063,-0.002441406,1.008789,15.99951,15.99951,15.10938
1222,-7.585217,11.090508,76.694977,-0.000976563,0.004882813,1.008789,15.99951,15.99951,15.10938
1224,-15.323671,8.906884,60.930748,-0.004882813,-0.01025391,1.000977,15.99951,15.99951,15.10938
1226,-11.109662,11.837537,72.327728,-0.000976563,0.004882813,1.004883,15.99951,15.99951,15.11475
1228,-15.285362,21.127512,87.115074,-0.000976563,0.02050781,0.9931641,15.99951,15.99951,15.11475
1230,-12.546256,15.285362,61.237225,0.01025391,0.03222656,1.000977,15.99951,15.99951,15.11475
1232,-14.040314,9.979541,78.246498,-0.02880859,0.02050781,1.020996,15.99951,15.99951,15.10938
1234,-21.242439,10.784034,87.498169,-0.004882813,0.01660156,1.008789,15.99951,15.99951,15.10938
1236,-8.217319,14.078624,67.6157,0.002441406,-0.006347656,0.9892578,15.99951,15.99951,15.10938
1238,-13.599759,10.803188,67.098526,0.01025391,-0.002441406,0.9775391,15.99951,15.99951,15.10938
1240,-14.461715,12.469638,93.99157,-0.03662109,0.01660156,1.000977,15.99951,15.99951,15.12012
1242,-9.519831,19.058817,77.00145,-0.02099609,0.000976563,1.024902,15.99951,15.99951,15.12012
1244,-15.936619,7.412826,63.842247,-0.01708984,0.000976563,0.9697266,15.99951,15.99951,15.12012
1246,-16.798574,7.125507,86.080727,-0.02099609,0.02441406,0.9775391,15.99951,15.99951,15.1123
1248,-8.619565,21.472296,81.004761,-0.004882813,0.004882813,0.9697266,15.99951,15.99951,15.1123
1250,-2.605024,7.93,63.554928,-0.008789063,0.008789063,1.01709,15.99951,15.99951,15.1123
1253,-13.331594,19.231209,86.674515,-0.008789063,0.01660156,0.9970703,15.99951,15.99951,15.11768
1255,-14.116933,18.484179,74.87529,0.002441406,-0.002441406,1.004883,15.99951,15.99951,15.11768
1257,-16.013237,10.094469,61.601162,-0.01708984,0.008789063,0.9931641,15.99951,15.99951,15.11768
1259,-17.641376,12.14401,86.387199,-0.008789063,-0.006347656,0.9970703,15.99951,15.99951,15.11768
1261,12.335556,15.591836,83.303307,0.01025391,-0.006347656,0.9892578,15.99951,15.99951,15.10938
1263,-10.190242,11.550218,63.554928,-0.004882813,-0.01025391,1.008789,15.99951,15.99951,15.10938
1265,-15.802536,9.692223,77.710167,-0.000976563,0.008789063,0.9970703,15.99951,15.99951,15.10938
1267,-16.051546,14.059469,87.05761,-0.004882813,0.03613281,0.9853516,15.99951,15.99951,15.12012
1269,-3.428672,20.28471,66.466423,-0.004882813,-0.01806641,1.008789,15.99951,15.99951,15.12012
1271,-18.273478,8.083237,71.906326,-0.004882813,0.01269531,1.004883,15.99951,15.99951,15.12012
1273,-13.369904,20.974276,93.340317,0.01806641,0.004882813,0.9970703,15.99951,15.99951,15.12012
1275,-8.274783,9.500676,64.550964,-0.02099609,0.01660156,1.008789,15.99951,15.99951,15.1123
1277,-6.646643,6.340169,68.650047,0.002441406,-0.006347656,0.9970703,15.99951,15.99951,15.1123
1279,-11.550218,13.503985,89.183769,0.006347656,-0.006347656,0.9892578,15.99951,15.99951,15.1123
1281,-12.929348,25.590532,77.805946,-0.01708984,0.02441406,1.020996,15.99951,15.99951,15.1123
1283,-13.140048,11.550218,64.570122,-0.01318359,0.02441406,0.9853516,15.99951,15.99951,15.1123
1286,-16.070702,11.684299,84.452583,0.002441406,-0.01025391,1.000977,15.99951,15.99951,15.1123
1288,-1.704759,18.771498,82.652054,-0.02880859,0.01269531,0.9892578,15.99951,15.99951,15.10693
1290,-15.4386,6.857343,74.377274,-0.03271484,-0.006347656,0.9736328,15.99951,15.99951,15.10693
1292,-16.185629,18.292633,83.4757,-0.008789063,0.02441406,0.9931641,15.99951,15.99951,15.10693
1294,-12.718648,27.927391,81.023911,0.01025391,0.02050781,0.9853516,15.99951,15.99951,15.10693
1296,-16.185629,2.605024,55.26099,0.01025391,0.03613281,0.9931641,15.99951,15.99951,15.12012
1298,-16.415483,16.683647,87.689713,-0.02099609,0.01269531,1.020996,15.99951,15.99951,15.12012
1300,5.784686,18.005314,96.098579,-0.02880859,0.000976563,1.036621,15.99951,15.99951,15.12012
1302,-8.964348,7.546908,63.80394,-0.03662109,-0.01025391,1.004883,15.99951,15.99951,15.10693
1304,-14.44256,15.706763,83.264999,0.01025391,0.004882813,0.9658203,15.99951,15.99951,15.10693
1306,-13.963696,19.920773,77.518623,0.05371094,0.01660156,0.9775391,15.99951,15.99951,15.10693
1308,-17.813768,13.944541,60.50935,-0.008789063,0.000976563,1.004883,15.99951,15.99951,15.10693
1310,-18.005314,17.06674,80.832367,-0.03271484,0.008789063,1.013184,15.99951,15.99951,15.12256
1312,0.91942,23.751692,87.000145,-0.004882813,0.03222656,0.9931641,15.99951,15.99951,15.12256
1314,-12.910193,9.366594,62.309879,-0.01708984,0.004882813,0.9658203,15.99951,15.99951,15.12256
1316,-10.898961,9.232512,75.833023,-0.004882813,0.004882813,1.020996,15.99951,15.99951,15.11768
1319,-23.004662,25.111668,82.786133,-0.000976563,-0.002441406,0.9931641,15.99951,15.99951,15.11768
1321,-5.535676,33.13744,72.40435,0.006347656,0.008789063,0.9775391,15.99951,15.99951,15.11768
1323,-15.247053,8.159855,71.293381,-0.000976563,-0.01416016,1.008789,15.99951,15.99951,15.11768
1325,-12.048237,4.961039,84.107803,-0.000976563,0.000976563,1.01709,15.99951,15.99951,15.11768
1327,-5.267512,16.166473,81.081375,-0.02490234,0.01269531,1.004883,15.99951,15.99951,15.11768
1329,-7.795918,-6.838189,71.40831,0.006347656,0.01660156,0.9931641,15.99951,15.99951,15.11768
1331,-11.396981,14.059469,85.448624,0.01806641,0.01269531,1.000977,15.99951,15.99951,15.11475
1333,-10.094469,22.755653,76.235268,0.006347656,0.02050781,0.9814453,15.99951,15.99951,15.11475
1335,-12.871884,14.040314,58.076717,0.02978516,-0.006347656,0.9931641,15.99951,15.99951,15.11475
1337,-13.465676,23.023817,92.114418,-0.02099609,0.02832031,1.01709,15.99951,15.99951,15.11475
1339,-1.551522,1.857995,77.729324,-0.01318359,-0.006347656,0.9892578,15.99951,15.99951,15.11475
1341,-7.029735,7.738454,64.110413,-0.004882813,0.01269531,0.9931641,15.99951,15.99951,15.11475
1343,-10.420096,11.013889,75.87133,-0.000976563,0.008789063,1.013184,15.99951,15.99951,15.11475
1345,-8.025773,15.783381,90.811913,-0.008789063,-0.002441406,0.9697266,15.99951,15.99951,15.11475
1347,-3.601063,15.457754,63.171837,-0.008789063,0.008789063,1.000977,15.99951,15.99951,15.11475
1350,-11.875846,10.01785,79.68309,-0.008789063,0.02050781,0.9814453,15.99951,15.99951,15.11475
1353,-15.630145,6.416788,90.907684,-0.000976563,0.02441406,1.044434,15.99951,15.99951,15.11768
1355,4.309783,29.229904,77.556931,-0.01708984,0.02050781,0.9970703,15.99951,15.99951,15.11768
1357,-4.022464,11.971619,67.155991,0.006347656,-0.01025391,1.020996,15.99951,15.99951,15.11768
1359,-11.93331,15.381136,81.905022,-0.01318359,0.01269531,0.9814453,15.99951,15.99951,15.11768
1361,-10.113624,20.801884,68.439346,-0.02490234,-0.002441406,1.01709,15.99951,15.99951,15.11768
1363,-7.278744,20.246401,66.15995,-0.000976563,0.000976563,1.04834,15.99951,15.99951,15.11768
1365,-14.806498,16.14732,73.247154,-0.008789063,0.02832031,0.9697266,15.99951,15.99951,15.11768
1367,-14.44256,23.004662,86.25312,-0.000976563,0.04833984,0.9853516,15.99951,15.99951,15.11768
1369,-3.696836,22.793962,68.324425,-0.04833984,0.02832031,0.9970703,15.99951,15.99951,15.11768
1371,-2.834879,13.484831,67.194298,-0.000976563,0.008789063,1.013184,15.99951,15.99951,15.11768
1373,-10.094469,23.042971,91.367393,-0.01318359,0.01660156,1.000977,15.99951,15.99951,15.10693
1375,-13.887077,29.076668,83.571472,-0.004882813,0.000976563,0.9892578,15.99951,15.99951,15.10693
1377,-7.623527,18.963043,67.194298,0.006347656,0.01660156,1.008789,15.99951,15.99951,15.10693
1379,-5.286667,18.292633,78.514664,0.006347656,0.008789063,1.004883,15.99951,15.99951,15.10449
1381,-4.941884,29.019203,84.107803,0.01416016,-0.006347656,0.9775391,15.99951,15.99951,15.10449
1383,-2.700797,17.085894,65.317154,0.01806641,0.01269531,1.020996,15.99951,15.99951,15.10449
1386,-14.94058,25.45645,85.735947,-0.008789063,0.01269531,0.9614258,15.99951,15.99951,15.10449
1388,-12.60372,24.766884,70.642128,-0.01318359,0.01269531,0.9931641,15.99951,15.99951,15.11475
1390,-4.443865,14.423406,53.575386,0.002441406,0.01269531,0.9931641,15.99951,15.99951,15.11475
1392,5.516522,10.879807,94.815216,-0.02099609,0.02050781,1.008789,15.99951,15.99951,15.11475
1394,-1.915459,28.980894,94.910988,-0.008789063,-0.02197266,0.9853516,15.99951,15.99951,15.12012
1396,2.356014,19.671764,51.659927,-0.02880859,0.000976563,0.9931641,15.99951,15.99951,15.12012
1398,-16.281401,5.995387,81.292076,-0.02490234,0.01660156,1.004883,15.99951,15.99951,15.12012
1400,-11.588527,23.694227,72.978989,-0.004882813,0.01269531,1.028809,15.99951,15.99951,15.12012
1402,-9.079275,12.833575,64.972366,-0.008789063,0.03222656,0.9931641,15.99951,15.99951,15.1123
1404,-13.580604,-0.996039,85.984955,0.01806641,-0.002441406,1.024902,15.99951,15.99951,15.1123
1406,-28.980894,16.013237,97.745872,-0.01318359,0.000976563,0.9697266,15.99951,15.99951,15.1123
1408,-7.412826,44.611038,50.683044,-0.01708984,0.01660156,1.008789,15.99951,15.99951,15.1123
1410,-9.883768,10.611643,82.422195,-0.008789063,-0.006347656,1.004883,15.99951,15.99951,15.1123
1412,-18.618261,6.665797,99.948647,-0.000976563,-0.002441406,1.028809,15.99951,15.99951,15.1123
1414,-12.220628,12.527102,76.867371,-0.008789063,-0.002441406,1.028809,15.99951,15.99951,15.10938
1416,-17.660532,9.385749,72.117027,-0.01318359,-0.006347656,0.9736328,15.99951,15.99951,15.10938
1419,-14.308478,13.159204,104.124352,0.002441406,0.03613281,1.013184,15.99951,15.99951,15.10938
1421,-9.577294,35.953163,61.831017,-0.02490234,-0.006347656,1.008789,15.99951,15.99951,15.10938
1423,-20.572029,8.542947,64.167877,-0.004882813,0.01660156,1.000977,15.99951,15.99951,15.12256
1425,-21.45314,20.78273,84.203575,-0.000976563,0.03222656,1.020996,15.99951,15.99951,15.12256
1427,-9.060121,35.435989,56.908287,-0.02099609,-0.01025391,0.9892578,15.99951,15.99951,15.12256
1429,-5.459058,4.597102,70.316498,-0.000976563,0.000976563,0.9970703,15.99951,15.99951,15.10693
1431,-14.059469,10.784034,59.55162,-0.004882813,0.02441406,1.01709,15.99951,15.99951,15.10693
1433,-11.626836,22.008623,96.290123,-0.03271484,0.03222656,1.013184,15.99951,15.99951,15.10693
1435,-12.1057,22.851425,52.426113,-0.01318359,0.05615234,1.004883,15.99951,15.99951,15.10693
1437,-17.717995,15.170435,78.438042,0.006347656,0.01269531,0.9892578,15.99951,15.99951,15.11475
1439,-23.253672,13.618914,98.416283,-0.02490234,0.01660156,1.004883,15.99951,15.99951,15.11475
1441,-7.949155,18.599106,63.574081,0.01806641,0.01269531,0.9892578,15.99951,15.99951,15.11475
1443,-15.515218,9.634759,73.266304,-0.000976563,0.02832031,0.9931641,15.99951,15.99951,15.1123
1445,-14.595798,13.906232,70.39312,0.002441406,0.008789063,0.9892578,15.99951,15.99951,15.1123
1447,7.01058,25.935314,70.259033,0.01806641,0.01269531,1.01709,15.99951,15.99951,15.1123
1449,-13.484831,12.220628,58.478962,-0.01708984,-0.006347656,0.9931641,15.99951,15.99951,15.11768
1452,-17.124203,19.173744,89.892487,-0.03271484,0.008789063,0.9814453,15.99951,15.99951,15.11768
1454,-9.711377,34.229252,68.458504,-0.04052734,0.03613281,1.008789,15.99951,15.99951,15.11768
1456,-16.664494,-0.670411,55.701546,0.01806641,0.000976563,0.9853516,15.99951,15.99951,15.11768
1458,-21.510605,5.918768,87.555626,-0.02099609,-0.01806641,0.9931641,15.99951,15.99951,15.11475
1460,-16.683647,16.549566,61.85017,0.002441406,0.02050781,0.9892578,15.99951,15.99951,15.11475
1462,-11.339517,6.378479,65.010674,-0.01318359,0.04052734,0.9775391,15.99951,15.99951,15.11475
1464,-11.301208,12.488792,74.760361,-0.02490234,0.01660156,1.020996,15.99951,15.99951,15.10693
1466,-24.728575,35.914856,82.728676,-0.01318359,0.03613281,1.052246,15.99951,15.99951,15.10693
1468,-13.484831,23.33029,67.041061,-0.02490234,0.004882813,0.9775391,15.99951,15.99951,15.10693
1470,-14.653261,17.143358,67.788094,-0.000976563,0.03613281,0.9814453,15.99951,15.99951,15.10693
1472,-19.595144,15.4386,79.204231,-0.01318359,0.01269531,0.9853516,15.99951,15.99951,15.10693
1474,-4.501328,40.741814,83.111763,0.01025391,-0.002441406,0.9892578,15.99951,15.99951,15.10693
1476,-7.47029,13.580604,62.539734,-0.02880859,0.004882813,1.008789,15.99951,15.99951,15.10693
1478,-15.840846,15.821691,82.154037,-0.04833984,0.01269531,0.9775391,15.99951,15.99951,15.1123
1480,-12.163164,37.60046,67.079376,-0.01708984,0.02832031,0.9853516,15.99951,15.99951,15.1123
1484,-14.078624,17.890387,52.96244,-0.008789063,0.02050781,0.9814453,15.99951,15.99951,15.1123
1487,-13.140048,15.802536,80.832367,0.006347656,0.000976563,0.9736328,15.99951,15.99951,15.10693
1489,-21.108358,29.938623,77.288773,-0.01318359,0.008789063,1.028809,15.99951,15.99951,15.10693
1491,16.31971,9.328285,29.498068,-0.02880859,-0.002441406,0.9970703,15.99951,15.99951,15.10693
1493,-13.06343,24.0007,66.94529,-0.008789063,-0.006347656,0.9892578,15.99951,15.99951,15.10693
1495,-26.87389,44.86005,86.004105,-0.02490234,0.008789063,1.004883,15.99951,15.99951,15.10693
1497,-13.082584,22.219324,60.01133,-0.004882813,-0.01416016,1.028809,15.99951,15.99951,15.10693
1499,-16.415483,20.399637,66.581352,0.002441406,0.02441406,1.000977,15.99951,15.99951,15.10693
1501,-23.138744,20.227247,83.686401,0.002441406,0.000976563,0.9775391,15.99951,15.99951,15.11475
1503,-8.677029,53.13483,73.649399,0.01025391,0.01660156,0.9853516,15.99951,15.99951,15.11475
1505,-13.52314,23.253672,67.404999,-0.008789063,0.008789063,0.9892578,15.99951,15.99951,15.11475
1507,-24.92012,27.5443,88.609131,-0.004882813,0.000976563,0.9892578,15.99951,15.99951,15.10693
1509,-34.497417,30.781425,81.426163,-0.000976563,0.03613281,1.004883,15.99951,15.99951,15.10693
1511,-17.334904,17.085894,65.47039,0.006347656,-0.01416016,0.9970703,15.99951,15.99951,15.10693
1513,-25.16913,23.943237,81.636864,-0.04833984,0.01660156,1.036621,15.99951,15.99951,15.10693
1515,-14.653261,42.025169,63.861401,-0.02490234,0.03222656,0.9931641,15.99951,15.99951,15.11768
1517,-10.420096,23.157898,52.100483,-0.03662109,-0.01025391,1.01709,15.99951,15.99951,15.11768
1520,-16.166473,25.264904,80.947296,0.002441406,-0.006347656,1.004883,15.99951,15.99951,15.11768
1522,-19.556835,28.310484,66.619659,-0.01318359,-0.01025391,0.9970703,15.99951,15.99951,15.11475
1524,-14.289324,12.163164,56.640121,0.01025391,0.000976563,1.008789,15.99951,15.99951,15.11475
1526,-20.054855,23.349445,80.583359,-0.008789063,0.02050781,0.9931641,15.99951,15.99951,15.11475
1528,-22.200169,37.179058,74.338959,-0.02099609,0.000976563,0.9853516,15.99951,15.99951,15.11475
1530,-9.443213,17.947851,54.648045,-0.01318359,-0.01416016,0.9892578,15.99951,15.99951,15.12256
1532,-15.266208,21.20413,72.519279,-0.000976563,0.01660156,1.004883,15.99951,15.99951,15.12256
1534,-27.678383,35.455147,74.070801,-0.02490234,0.008789063,1.020996,15.99951,15.99951,15.12256
1536,-19.077971,16.14732,52.943287,0.006347656,0.004882813,1.004883,15.99951,15.99951,15.11475
1538,-22.449179,16.530411,74.951912,0.01025391,0.03222656,1.004883,15.99951,15.99951,15.11475
1540,-21.45314,33.271523,74.87529,0.006347656,0.01269531,1.036621,15.99951,15.99951,15.11475
1542,-11.569372,22.564106,53.881859,-0.02099609,0.008789063,1.024902,15.99951,15.99951,15.11475
1544,-12.450483,24.594494,70.603821,-0.01708984,0.004882813,1.024902,15.99951,15.99951,15.11475
1546,-26.299252,43.480919,83.188385,-0.01318359,0.000976563,0.9853516,15.99951,15.99951,15.11475
1548,-16.626184,25.992779,64.570122,-0.02099609,0.008789063,1.004883,15.99951,15.99951,15.11475
1550,-15.496063,19.384445,66.332344,-0.02880859,0.01660156,0.9775391,15.99951,15.99951,15.10449
1553,-21.855387,10.26686,89.988258,0.002441406,0.03613281,0.9892578,15.99951,15.99951,15.10449
1555,-6.665797,34.880508,67.711472,0.01416016,0.000976563,1.013184,15.99951,15.99951,15.10449
1557,-10.26686,24.766884,65.642776,-0.02099609,0.03613281,0.9931641,15.99951,15.99951,15.12012
1559,-23.406908,20.572029,91.731331,-0.000976563,-0.02978516,1.004883,15.99951,15.99951,15.12012
1561,-18.120241,37.447224,74.20488,-0.01708984,0.02441406,0.9970703,15.99951,15.99951,15.12012
1563,-16.951813,19.920773,67.27092,0.002441406,0.02832031,1.004883,15.99951,15.99951,15.12012
1565,-27.333599,20.246401,77.901718,-0.02880859,-0.002441406,1.008789,15.99951,15.99951,15.09912
1567,-14.749034,54.284107,88.034492,0.02587891,0.02050781,0.9892578,15.99951,15.99951,15.09912
1569,-11.799227,13.216667,56.218719,-0.004882813,-0.006347656,1.008789,15.99951,15.99951,15.09912
1571,-22.717342,23.119589,89.202927,0.002441406,0.008789063,1.024902,15.99951,15.99951,15.11475
1573,-21.395676,40.741814,64.550964,-0.01318359,0.01660156,0.9892578,15.99951,15.99951,15.11475
1575,-20.016546,18.273478,61.773552,-0.008789063,-0.01806641,1.000977,15.99951,15.99951,15.11475
1577,-31.470991,21.98947,78.955215,-0.004882813,0.004882813,1.000977,15.99951,15.99951,15.10938
1579,-14.883116,41.278141,72.308578,-0.02099609,0.01660156,0.9853516,15.99951,15.99951,15.10938
1581,-11.454445,19.403599,54.686352,0.01025391,0.000976563,1.004883,15.99951,15.99951,15.10938
1583,-23.253672,34.190941,90.811913,-0.04052734,0.01660156,0.9775391,15.99951,15.99951,15.10938
1586,-21.376522,47.062828,64.359421,0.01025391,0.004882813,0.9853516,15.99951,15.99951,15.11475
1588,-20.744421,15.170435,61.256378,-0.03271484,0.004882813,1.008789,15.99951,15.99951,15.11475
1590,-27.391064,27.563454,84.337662,0.006347656,0.01269531,0.9736328,15.99951,15.99951,15.11475
1592,-15.112971,47.963093,72.74913,-0.008789063,-0.002441406,0.9970703,15.99951,15.99951,15.12012
1594,-11.339517,16.453793,58.000099,0.01806641,-0.01025391,0.9814453,15.99951,15.99951,15.12012
1596,-16.741112,26.337561,85.908333,-0.01318359,0.004882813,1.024902,15.99951,15.99951,15.12012
1598,-21.70215,43.538383,73.438698,-0.02880859,0.004882813,1.01709,15.99951,15.99951,15.1123
1600,-13.484831,10.228551,61.486233,-0.004882813,0.008789063,1.020996,15.99951,15.99951,15.1123
1602,-26.011932,21.357367,84.835678,0.006347656,0.02832031,1.008789,15.99951,15.99951,15.1123
1604,-6.110314,48.15464,76.618355,-0.02490234,0.02050781,1.000977,15.99951,15.99951,15.1123
1606,-8.179009,17.583914,57.482922,0.002441406,0.04443359,1.01709,15.99951,15.99951,15.10938
1608,-16.932657,16.856039,85.391159,-0.03271484,0.02050781,0.9892578,15.99951,15.99951,15.10938
1610,-11.64599,47.752392,65.968407,0.01025391,-0.01025391,1.020996,15.99951,15.99951,15.10938
1612,-13.752995,19.575991,62.712128,0.006347656,0.01660156,1.000977,15.99951,15.99951,15.1123
1614,-20.0357,22.16186,83.264999,-0.01318359,0.02050781,1.020996,15.99951,15.99951,15.1123
1617,-11.93331,33.003357,67.673164,-0.01708984,0.02832031,1.000977,15.99951,15.99951,15.1123
1620,-9.09843,20.418793,49.706161,-0.01708984,0.01660156,1.020996,15.99951,15.99951,15.1123
1622,-11.358671,18.579952,70.7379,-0.000976563,0.03613281,0.9970703,15.99951,15.99951,15.10449
1624,-19.154589,36.144711,80.430122,-0.004882813,0.04443359,0.9853516,15.99951,15.99951,15.10449
1626,-10.688261,26.241787,67.309227,-0.004882813,-0.006347656,0.9853516,15.99951,15.99951,15.10449
1628,-13.963696,22.104397,61.447922,0.006347656,0.03222656,1.000977,15.99951,15.99951,15.1123
1630,-23.924082,25.45645,84.126961,-0.000976563,-0.006347656,1.004883,15.99951,15.99951,15.1123
1632,-10.400942,40.531113,78.801979,-0.008789063,0.000976563,0.9931641,15.99951,15.99951,15.1123
1634,-7.393672,20.457102,58.517273,-0.01318359,0.02050781,0.9853516,15.99951,15.99951,15.11768
1636,-19.978237,13.465676,87.72802,0.006347656,0.000976563,1.01709,15.99951,15.99951,15.11768
1638,-17.181667,36.566113,78.150726,0.002441406,0.02441406,0.9853516,15.99951,15.99951,15.11768
1640,-11.473599,20.78273,63.229301,0.02197266,0.01269531,0.9970703,15.99951,15.99951,15.11768
1642,-22.985508,19.1929,72.959831,0.002441406,-0.01025391,0.9814453,15.99951,15.99951,15.11475
1644,-12.871884,49.95517,80.698288,0.01416016,0.03613281,0.9775391,15.99951,15.99951,15.11475
1646,-9.960386,23.540991,59.302608,0.002441406,0.02050781,1.028809,15.99951,15.99951,15.11475
1648,-20.11232,30.417488,81.962486,-0.01318359,-0.006347656,0.9814453,15.99951,15.99951,15.12256
1650,-20.418793,56.161255,63.535774,0.006347656,0.004882813,1.008789,15.99951,15.99951,15.12256
1653,-11.377827,20.801884,58.517273,0.01025391,0.000976563,1.000977,15.99951,15.99951,15.12256
1655,-24.307175,30.379179,81.062225,-0.02490234,-0.002441406,1.008789,15.99951,15.99951,15.12256
1657,-17.085894,39.535072,65.451233,-0.04443359,0.02832031,1.008789,15.99951,15.99951,15.11475
1659,-13.963696,19.86331,52.521885,-0.01708984,0.01660156,1.013184,15.99951,15.99951,15.11475
1661,-15.917464,26.548262,81.713478,-0.01318359,0.01660156,0.9931641,15.99951,15.99951,15.11475
1663,-19.556835,34.765579,66.294037,-0.008789063,0.000976563,1.004883,15.99951,15.99951,15.11768
1665,-14.538334,18.599106,53.824398,-0.01318359,0.02832031,0.9931641,15.99951,15.99951,15.11768
1667,-22.315098,26.12686,71.389153,-0.02099609,0.01660156,0.9970703,15.99951,15.99951,15.11768
1669,-27.525145,59.455845,74.281502,-0.02490234,0.02050781,0.9892578,15.99951,15.99951,15.10693
1671,-11.684299,26.778116,59.455845,-0.02490234,0.008789063,0.9853516,15.99951,15.99951,15.10693
1673,-9.768841,25.341522,62.673817,-0.008789063,0.008789063,1.004883,15.99951,15.99951,15.10693
1675,-25.552223,25.533068,87.632248,0.03369141,0.01660156,0.9775391,15.99951,15.99951,15.10693
1677,-17.641376,46.48819,68.209496,-0.04443359,0.02441406,1.008789,15.99951,15.99951,15.10938
1679,-19.595144,25.533068,72.136185,0.006347656,0.02832031,1.004883,15.99951,15.99951,15.10938
1681,-36.451183,22.315098,84.452583,-0.02880859,0.01269531,1.000977,15.99951,15.99951,15.10938
1683,-5.439903,45.951862,72.787437,0.01806641,0.03222656,0.9892578,15.99951,15.99951,15.12012
1686,-11.837537,22.104397,61.198914,0.01416016,0.004882813,0.9697266,15.99951,15.99951,15.12012
1688,-23.406908,32.29464,86.368042,-0.02880859,0.03222656,0.9892578,15.99951,15.99951,15.12012
1690,-15.879155,50.242489,70.029182,-0.01318359,0.000976563,0.9775391,15.99951,15.99951,15.12012
1692,-9.500676,20.801884,61.965099,0.002441406,0.008789063,0.9970703,15.99951,15.99951,15.12012
1694,-18.40756,27.908237,79.874641,-0.01318359,0.004882813,0.9970703,15.99951,15.99951,15.12012
1696,-7.106353,41.622925,66.370651,-0.02490234,0.04443359,1.040527,15.99951,15.99951,15.12012
1698,-7.853382,18.618261,52.866669,-0.03271484,-0.002441406,0.9853516,15.99951,15.99951,15.11475
1700,-7.374517,22.966352,77.192993,0.01025391,-0.01025391,0.9536133,15.99951,15.99951,15.11475
1702,-17.028431,42.082634,76.88652,-0.008789063,-0.002441406,0.9931641,15.99951,15.99951,15.11475
1704,-10.26686,21.414831,54.686352,-0.000976563,0.004882813,0.9814453,15.99951,15.99951,15.12549
1706,-12.029082,17.23913,69.856789,-0.02099609,0.03613281,0.9970703,15.99951,15.99951,15.12549
1708,-22.027779,55.529156,86.004105,-0.004882813,0.01660156,0.9892578,15.99951,15.99951,15.12549
1710,-3.332899,16.051546,58.076717,0.01806641,-0.01806641,0.9931641,15.99951,15.99951,15.12549
1712,-7.872536,18.465025,72.615051,0.03808594,0.000976563,1.032715,15.99951,15.99951,15.11768
1714,-12.316401,47.848164,84.165268,0.01806641,0.008789063,0.9970703,15.99951,15.99951,15.11768
1716,-6.79988,11.856691,54.264954,-0.01318359,-0.006347656,1.000977,15.99951,15.99951,15.11768
1719,-11.837537,18.771498,77.116379,-0.04833984,0.008789063,0.9814453,15.99951,15.99951,15.10693
1721,-15.591836,39.266911,96.060265,-0.01708984,-0.01416016,1.000977,15.99951,15.99951,15.10693
1723,1.110966,15.936619,54.571426,-0.03271484,0.008789063,0.9814453,15.99951,15.99951,15.10693
1725,-3.25628,22.717342,78.150726,-0.000976563,0.008789063,0.9931641,15.99951,15.99951,15.11768
1727,-18.69488,36.25964,87.919563,-0.004882813,-0.006347656,1.024902,15.99951,15.99951,15.11768
1729,-6.244396,18.484179,56.88913,-0.000976563,0.000976563,1.01709,15.99951,15.99951,15.11768
1731,-14.212706,22.583261,80.161957,-0.008789063,0.02441406,1.008789,15.99951,15.99951,15.11768
1733,-21.280748,26.318407,86.023262,0.01806641,-0.01025391,0.9814453,15.99951,15.99951,15.10449
1735,-3.390362,32.63942,65.757706,-0.01318359,-0.002441406,1.004883,15.99951,15.99951,15.10449
1737,-8.217319,25.801231,68.803284,-0.02490234,0.01660156,1.020996,15.99951,15.99951,15.10449
1739,-17.028431,30.609034,89.873337,-0.02099609,0.01660156,0.9892578,15.99951,15.99951,15.11768
1741,-5.937923,36.393719,62.463116,-0.01318359,0.000976563,0.9970703,15.99951,15.99951,15.11768
1743,-13.216667,17.009275,73.477005,0.002441406,0.03222656,1.000977,15.99951,15.99951,15.11768
1745,-24.211401,25.284058,94.547058,0.006347656,-0.01025391,0.9931641,15.99951,15.99951,15.11768
1747,-4.67372,40.377876,64.665894,-0.004882813,-0.002441406,0.9853516,15.99951,15.99951,15.10449
1751,-7.47029,23.406908,70.546356,-0.004882813,0.004882813,1.008789,15.99951,15.99951,15.10449
1754,-17.296595,24.096474,89.241234,-0.02880859,0.01660156,0.9970703,15.99951,15.99951,15.10449
1756,-14.519179,45.20483,68.343575,-0.008789063,-0.006347656,0.9853516,15.99951,15.99951,15.10449
1758,-14.23186,18.65657,65.317154,-0.01318359,0.03222656,1.004883,15.99951,15.99951,15.10449
1760,-21.184977,28.042318,91.52063,0.02197266,0.03613281,0.9614258,15.99951,15.99951,15.10449
1762,-10.190242,43.557537,66.543045,-0.000976563,-0.002441406,1.004883,15.99951,15.99951,15.12256
1764,-9.653913,21.108358,56.122948,-0.01318359,0.000976563,0.9970703,15.99951,15.99951,15.12256
1766,-13.657223,29.574686,82.728676,-0.04833984,0.004882813,1.008789,15.99951,15.99951,15.12256
1768,-12.431329,43.576691,57.923477,-0.02490234,0.01660156,0.9892578,15.99951,15.99951,15.12256
1770,-10.688261,10.51587,50.874592,0.01806641,0.004882813,1.013184,15.99951,15.99951,15.11475
1772,-20.11232,26.203478,85.142151,0.03369141,0.04052734,1.004883,15.99951,15.99951,15.11475
1774,-10.324324,44.496113,62.329033,-0.01318359,0.02050781,1.020996,15.99951,15.99951,15.11475
1776,-5.803841,18.177706,48.441956,-0.01318359,0.01269531,1.013184,15.99951,15.99951,15.12012
1778,-16.664494,27.180363,84.759056,0.01025391,0.000976563,1.01709,15.99951,15.99951,15.12012
1780,-22.602415,43.270218,69.377922,-0.008789063,0.03613281,0.9970703,15.99951,15.99951,15.12012
1782,-13.120893,12.833575,53.996788,0.01806641,0.02832031,1.008789,15.99951,15.99951,15.12012
1784,-18.541643,22.276787,76.19696,-0.03271484,0.000976563,0.9775391,15.99951,15.99951,15.1123
1787,-21.261595,51.1236,86.099884,0.02197266,-0.006347656,1.004883,15.99951,15.99951,15.1123
1789,-9.481522,22.889734,53.019905,0.006347656,0.01660156,1.000977,15.99951,15.99951,15.1123
1791,-7.642681,31.01128,69.703552,-0.04443359,0.01660156,1.008789,15.99951,15.99951,15.10938
1793,-18.101088,28.004009,84.548355,0.01806641,0.02050781,1.01709,15.99951,15.99951,15.10938
1795,-17.871233,41.776161,67.845558,-0.02099609,-0.02587891,1.01709,15.99951,15.99951,15.10938
1797,-16.338865,20.11232,66.983597,-0.008789063,-0.006347656,0.9853516,15.99951,15.99951,15.10693
1799,-23.962391,19.212053,84.490898,-0.01318359,0.01660156,0.9853516,15.99951,15.99951,15.10693
1801,-5.114275,50.414879,79.644783,-0.01708984,0.02441406,1.000977,15.99951,15.99951,15.10693
1803,-9.194203,27.697536,61.486233,-0.000976563,0.000976563,0.9853516,15.99951,15.99951,15.10693
1805,-9.175049,25.41814,81.330391,0.002441406,0.03222656,0.9853516,15.99951,15.99951,15.10693
1807,-4.769493,50.778816,79.66394,0.01025391,0.02441406,1.036621,15.99951,15.99951,15.10693
1809,-13.025121,28.425411,53.000748,0.01416016,0.008789063,0.9970703,15.99951,15.99951,15.10693
1811,-23.560144,31.164516,89.73925,-0.02880859,0.03613281,1.013184,15.99951,15.99951,15.11768
1813,-18.388407,51.1236,57.195606,-0.02099609,0.008789063,1.024902,15.99951,15.99951,15.11768
1815,-20.667803,23.08128,59.513309,-0.01318359,-0.01025391,0.9970703,15.99951,15.99951,15.11768
1817,-24.862658,28.846811,76.235268,-0.000976563,0.008789063,0.9775391,15.99951,15.99951,15.11768
1820,-19.959082,54.91621,70.182419,0.002441406,0.02832031,1.004883,15.99951,15.99951,15.11768
1822,-17.603067,15.764227,59.609081,-0.008789063,0.01269531,0.9970703,15.99951,15.99951,15.11768
1824,-15.630145,21.184977,89.260391,-0.01318359,0.02050781,1.04834,15.99951,15.99951,15.11768
1826,-5.631449,35.93401,58.766281,-0.01708984,0.000976563,1.004883,15.99951,15.99951,15.11475
1828,-15.093817,23.253672,57.406303,-0.02099609,0.01660156,0.9853516,15.99951,15.99951,15.11475
1830,-16.300556,28.118938,77.729324,0.002441406,0.000976563,0.9931641,15.99951,15.99951,15.11475
1832,-14.634107,45.051594,63.248455,0.002441406,0.004882813,0.9931641,15.99951,15.99951,15.10693
1834,7.087198,12.354711,54.341572,-0.01318359,0.01269531,1.000977,15.99951,15.99951,15.10693
1836,-19.825001,17.48814,73.611092,-0.02490234,0.02832031,0.9736328,15.99951,15.99951,15.10693
1838,-31.394373,56.122948,80.564201,0.006347656,0.004882813,1.004883,15.99951,15.99951,15.10693
1840,-25.762922,21.357367,53.058212,-0.01318359,0.02832031,0.9853516,15.99951,15.99951,15.1123
1842,-15.783381,22.066088,74.185722,-0.004882813,0.000976563,0.9814453,15.99951,15.99951,15.1123
1844,-34.612343,26.778116,81.11969,-0.02880859,-0.002441406,1.004883,15.99951,15.99951,15.1123
1846,-13.52314,18.714033,58.134178,-0.004882813,0.02441406,1.01709,15.99951,15.99951,15.11768
1848,-22.717342,14.270169,72.825752,0.002441406,0.008789063,1.013184,15.99951,15.99951,15.11768
1850,-37.60046,37.734543,84.835678,-0.01708984,0.004882813,0.9853516,15.99951,15.99951,15.11768
1853,-13.542295,29.459759,67.960487,0.01806641,0.01660156,1.020996,15.99951,15.99951,15.1123
1855,-12.14401,15.764227,59.743164,-0.000976563,0.02832031,0.9814453,15.99951,15.99951,15.1123
1857,-31.451836,20.131474,91.214157,-0.02490234,0.004882813,1.004883,15.99951,15.99951,15.1123
1859,-19.652609,34.210098,66.772896,-0.02099609,-0.006347656,0.9892578,15.99951,15.99951,15.1123
1861,-19.326981,22.046932,66.696281,0.002441406,0.02050781,1.000977,15.99951,15.99951,15.1123
1863,-33.328987,32.141403,82.786133,-0.02099609,0.008789063,0.9853516,15.99951,15.99951,15.1123
1865,-12.124855,44.725967,58.325726,0.002441406,-0.006347656,1.040527,15.99951,15.99951,15.1123
1867,-15.764227,26.720652,56.276184,0.01416016,-0.02587891,0.9814453,15.99951,15.99951,15.11475
1869,-23.215363,25.973623,80.200264,-0.02490234,0.01269531,1.040527,15.99951,15.99951,15.11475
1871,-26.778116,33.367294,60.739204,-0.01318359,0.01660156,0.9970703,15.99951,15.99951,15.11475
1873,-21.242439,20.457102,53.766933,-0.004882813,0.04833984,0.9853516,15.99951,15.99951,15.11475
1875,-21.70215,22.066088,70.910294,-0.008789063,0.01660156,1.01709,15.99951,15.99951,15.1123
1877,-26.107706,33.673767,87.785484,0.01806641,0.01269531,0.9931641,15.99951,15.99951,15.1123
1879,-9.060121,38.021862,65.087296,0.01416016,0.02832031,0.9853516,15.99951,15.99951,15.1123
1881,-8.044928,26.739807,62.52058,-0.02880859,0.000976563,1.008789,15.99951,15.99951,15.1123
1884,-17.009275,24.422102,81.253769,-0.000976563,0.01660156,1.020996,15.99951,15.99951,15.1123
1887,-12.239782,44.802586,67.864708,-0.02490234,0.02441406,1.032715,15.99951,15.99951,15.1123
1889,-15.994082,31.298599,63.286762,0.002441406,0.000976563,0.9892578,15.99951,15.99951,15.12256
1891,-26.37587,34.899662,83.264999,-0.03271484,-0.002441406,0.9892578,15.99951,15.99951,15.12256
1893,-4.520483,49.95517,57.751087,-0.000976563,0.01269531,0.9892578,15.99951,15.99951,15.12256
1895,-8.945193,25.686304,63.171837,-0.01318359,0.01269531,0.9931641,15.99951,15.99951,15.12256
1897,-15.342826,39.362682,73.170532,-0.02490234,0.004882813,0.9853516,15.99951,15.99951,15.12012
1899,-27.027126,41.507996,62.980289,-0.02099609,0.000976563,0.9931641,15.99951,15.99951,15.12012
1901,-16.128164,24.07732,53.383842,0.03369141,0.02441406,0.9775391,15.99951,15.99951,15.12012
1903,-23.962391,32.945892,74.281502,-0.01708984,-0.01416016,1.004883,15.99951,15.99951,15.12256
1905,-20.801884,41.929398,68.726669,-0.008789063,0.01660156,0.9697266,15.99951,15.99951,15.12256
1907,-14.595798,29.42145,46.871281,-0.01708984,0.000976563,0.9931641,15.99951,15.99951,15.12256
1909,-15.974928,31.413527,68.918213,0.002441406,0.008789063,1.020996,15.99951,15.99951,15.12256
1911,-28.444565,44.208794,71.140144,-0.008789063,-0.006347656,1.020996,15.99951,15.99951,15.11475
1913,-17.852077,19.901619,54.150024,-0.008789063,0.02050781,0.9736328,15.99951,15.99951,15.11475
1915,-17.564758,22.889734,66.887825,0.02197266,0.004882813,1.000977,15.99951,15.99951,15.11475
1917,-31.279446,71.120995,72.327728,-0.02490234,0.01660156,1.000977,15.99951,15.99951,15.11768
1920,-17.200821,40.186329,53.652004,0.002441406,0.008789063,0.9931641,15.99951,15.99951,15.11768
1922,-14.23186,33.999397,65.527847,-0.01318359,0.01269531,1.028809,15.99951,15.99951,15.11768
1924,-19.480217,33.999397,79.529854,-0.02099609,0.05224609,0.9775391,15.99951,15.99951,15.11475
1926,-15.725918,46.928745,62.175797,-0.01318359,-0.01416016,1.004883,15.99951,15.99951,15.11475
1928,-17.967005,32.160557,59.877247,-0.02099609,-0.002441406,1.020996,15.99951,15.99951,15.11475
1930,-27.505991,45.415531,73.400391,-0.000976563,0.000976563,1.008789,15.99951,15.99951,15.11475
1932,-16.492102,54.686352,57.961788,0.01806641,0.008789063,1.024902,15.99951,15.99951,15.11475
1934,-10.305169,33.520531,51.027828,-0.01708984,0.004882813,1.036621,15.99951,15.99951,15.11475
1936,-19.748383,43.883163,74.396423,-0.004882813,0.01269531,1.020996,15.99951,15.99951,15.11475
1938,-17.679686,43.251064,59.532463,-0.000976563,0.03613281,1.008789,15.99951,15.99951,15.11768
1940,-18.216015,22.755653,59.0536,0.01025391,0.004882813,0.9892578,15.99951,15.99951,15.11768
1942,-19.710073,30.800581,69.818481,-0.02099609,-0.02587891,1.004883,15.99951,15.99951,15.11768
1944,-28.75104,49.552925,70.316498,-0.008789063,-0.02197266,0.9931641,15.99951,15.99951,15.11768
1946,-11.492754,31.202826,50.606426,0.01416016,-0.006347656,1.008789,15.99951,15.99951,15.11768
1948,-15.017199,36.872585,66.543045,-0.008789063,0.05224609,0.9970703,15.99951,15.99951,15.11768
1950,-32.198864,59.934711,73.802635,-0.01318359,-0.002441406,1.004883,15.99951,15.99951,15.11768
1953,-18.69488,29.689613,50.874592,0.002441406,-0.03369141,1.008789,15.99951,15.99951,15.11475
1955,-16.013237,35.64669,65.623627,-0.03271484,-0.006347656,1.020996,15.99951,15.99951,15.11475
1957,-28.904276,33.022514,83.226692,-0.02099609,0.008789063,1.000977,15.99951,15.99951,15.11475
1959,-18.40756,52.770893,54.475655,-0.01708984,0.000976563,0.9853516,15.99951,15.99951,15.11768
1961,-10.554179,43.883163,56.525192,-0.02490234,0.04443359,0.9853516,15.99951,15.99951,15.11768
1963,-22.793962,52.445267,71.963791,-0.004882813,0.01660156,0.9892578,15.99951,15.99951,15.11768
1965,-20.323019,67.788094,57.348843,-0.02099609,0.000976563,1.044434,15.99951,15.99951,15.11768
1967,-18.024469,44.764275,47.790703,-0.02099609,0.02050781,1.01709,15.99951,15.99951,15.10449
1969,-30.302561,54.264954,66.198265,-0.008789063,0.01660156,1.000977,15.99951,15.99951,15.10449
1971,-12.278092,61.945942,44.840893,-0.004882813,-0.01025391,0.9775391,15.99951,15.99951,15.10449
1973,-9.34744,42.618961,47.599155,0.01025391,0.008789063,0.9970703,15.99951,15.99951,15.11768
1975,-14.308478,51.276836,51.755703,-0.01708984,0.02832031,0.9775391,15.99951,15.99951,15.11768
1977,-30.532415,70.431427,58.689663,-0.000976563,0.02832031,1.004883,15.99951,15.99951,15.11768
1979,-58.536427,75.411621,-72.308578,-0.01708984,0.004882813,1.020996,15.99951,15.99951,15.1123
1981,-16.741112,34.612343,71.312538,0.01025391,0.000976563,1.008789,15.99951,15.99951,15.1123
1983,-18.867271,35.570072,85.180458,0.002441406,-0.002441406,0.9614258,15.99951,15.99951,15.1123
1986,-1.455749,53.824398,53.671162,-0.000976563,0.03222656,1.028809,15.99951,15.99951,15.1123
1988,-11.224589,39.420147,54.150024,-0.004882813,-0.01025391,0.9931641,15.99951,15.99951,15.12012
1990,-25.992779,41.258987,75.354156,-0.02490234,0.02441406,1.024902,15.99951,15.99951,15.12012
1992,-17.48814,65.623627,56.486885,-0.01708984,0.02050781,1.008789,15.99951,15.99951,15.12012
1994,-12.737803,34.823044,58.670509,0.01025391,0.02050781,0.9970703,15.99951,15.99951,15.1123
1996,-18.369251,40.703503,72.844902,0.006347656,0.01269531,0.9931641,15.99951,15.99951,15.1123
1998,-7.834227,72.978989,60.049637,-0.02490234,0.02832031,1.004883,15.99951,15.99951,15.1123
2000,-5.727222,39.324371,51.832321,-0.02490234,-0.01806641,0.9892578,15.99951,15.99951,15.1123
2002,-16.664494,45.262295,74.243187,0.002441406,0.008789063,0.9931641,15.99951,15.99951,15.12012
2004,-13.98285,70.527199,58.689663,-0.01318359,0.02832031,1.008789,15.99951,15.99951,15.12012
2006,-9.328285,32.237175,54.743816,0.02587891,0.004882813,0.9775391,15.99951,15.99951,15.12012
2008,-17.181667,48.844204,74.817825,-0.01318359,0.02441406,1.028809,15.99951,15.99951,15.12256
2010,-9.634759,56.103794,56.027176,-0.004882813,0.01660156,1.008789,15.99951,15.99951,15.12256
2012,-7.853382,35.819084,48.365337,-0.02490234,0.008789063,1.000977,15.99951,15.99951,15.12256
2014,-19.058817,47.407608,70.354805,-0.01708984,0.01660156,1.028809,15.99951,15.99951,15.11475
2018,-15.323671,57.751087,59.22599,-0.004882813,0.004882813,0.9775391,15.99951,15.99951,15.11475
2021,-9.251667,28.770193,54.609734,0.01025391,0.000976563,0.9931641,15.99951,15.99951,15.11475
2023,-20.169783,44.668503,73.477005,-0.004882813,0.01660156,0.9775391,15.99951,15.99951,15.11475
2025,-8.044928,62.194954,54.76297,-0.01708984,0.008789063,0.9931641,15.99951,15.99951,15.1123
2027,-7.297899,28.731884,50.587273,0.006347656,0.004882813,1.004883,15.99951,15.99951,15.1123
2029,-18.196859,45.70285,70.29734,0.01025391,0.02050781,0.9931641,15.99951,15.99951,15.1123
2031,-16.664494,68.841599,59.034447,-0.01318359,0.03613281,1.000977,15.99951,15.99951,15.10449
2033,-10.458405,31.298599,53.268913,0.01025391,0.000976563,1.020996,15.99951,15.99951,15.10449
2035,-24.383793,50.089252,73.07476,-0.01708984,0.000976563,1.004883,15.99951,15.99951,15.10449
2037,-8.715339,71.427467,60.164566,-0.02880859,-0.01416016,1.013184,15.99951,15.99951,15.10449
2039,-9.309131,41.048286,50.740509,-0.004882813,0.000976563,0.9853516,15.99951,15.99951,15.12012
2041,-23.119589,46.794662,71.599854,-0.008789063,0.004882813,1.004883,15.99951,15.99951,15.12012
2043,-16.31971,63.229301,53.843552,-0.01318359,0.02441406,1.013184,15.99951,15.99951,15.12012
2045,-14.327633,37.906933,64.914902,0.006347656,0.02050781,1.01709,15.99951,15.99951,15.11768
2047,-17.507296,44.917511,67.59655,0.002441406,0.01269531,0.9775391,15.99951,15.99951,15.11768
2049,-14.174397,62.922829,58.574734,-0.004882813,-0.002441406,0.9853516,15.99951,15.99951,15.11768
2051,-9.309131,38.788044,52.809204,-0.004882813,0.004882813,0.9853516,15.99951,15.99951,15.12012
2054,-18.062778,43.825703,78.246498,-0.008789063,0.02050781,1.000977,15.99951,15.99951,15.12012
2056,-8.42802,45.951862,54.399036,-0.004882813,0.008789063,1.000977,15.99951,15.99951,15.12012
2058,-11.224589,30.743116,64.110413,0.006347656,0.004882813,1.036621,15.99951,15.99951,15.12012
2060,-23.33029,68.61174,77.307922,-0.02490234,-0.01416016,0.9736328,15.99951,15.99951,15.10938
2062,-9.289976,42.810509,51.62162,-0.008789063,0.02832031,0.9736328,15.99951,15.99951,15.10938
2064,-7.087198,41.412224,58.000099,0.01025391,0.004882813,0.9892578,15.99951,15.99951,15.10938
2066,-24.479565,56.812511,75.947945,-0.01318359,0.03222656,1.020996,15.99951,15.99951,15.11768
2068,-6.148623,43.059517,49.974323,0.006347656,0.02832031,0.9970703,15.99951,15.99951,15.11768
2070,-13.906232,42.044323,65.010674,0.01025391,0.01660156,1.000977,15.99951,15.99951,15.11768
2072,-23.981546,67.558235,69.224686,-0.01708984,-0.002441406,1.008789,15.99951,15.99951,15.10449
2074,-10.305169,49.246449,52.330338,-0.02099609,0.03222656,1.028809,15.99951,15.99951,15.10449
2076,-4.079927,39.72662,54.284107,-0.01708984,0.004882813,0.9814453,15.99951,15.99951,15.10449
2078,-24.594494,67.309227,75.20092,0.002441406,0.01269531,1.004883,15.99951,15.99951,15.10449
2080,-8.523792,30.015242,46.928745,-0.008789063,0.008789063,1.024902,15.99951,15.99951,15.12012
2082,-12.833575,40.837585,69.95256,0.01416016,0.01660156,1.000977,15.99951,15.99951,15.12012
2084,-25.916161,60.834976,69.167221,-0.000976563,0.008789063,1.008789,15.99951,15.99951,15.12012
2087,-11.377827,43.825703,50.357414,0.03369141,0.01269531,0.9736328,15.99951,15.99951,15.1123
2089,-3.275435,39.343529,55.988865,-0.000976563,-0.006347656,0.9697266,15.99951,15.99951,15.1123
2091,-19.710073,70.010025,81.905022,0.03369141,-0.002441406,1.000977,15.99951,15.99951,15.1123
2093,-6.493406,44.53442,46.085941,0.01025391,0.008789063,0.9614258,15.99951,15.99951,15.1123
2095,-17.277439,43.02121,67.673164,-0.01708984,0.02441406,0.9892578,15.99951,15.99951,15.11475
2097,-20.169783,63.957176,75.143456,0.01416016,0.03222656,0.9853516,15.99951,15.99951,15.11475
2099,-6.359324,53.556232,50.395725,-0.000976563,0.01660156,1.028809,15.99951,15.99951,15.11475
2101,-9.519831,38.788044,62.252415,-0.000976563,0.03222656,0.9931641,15.99951,15.99951,15.10693
2103,-27.29529,58.593891,75.239227,-0.000976563,0.03613281,0.9814453,15.99951,15.99951,15.10693
2105,-15.936619,41.642078,48.288719,-0.02099609,0.008789063,1.020996,15.99951,15.99951,15.10693
2107,-20.361328,42.23587,66.408958,-0.02880859,-0.01806641,0.9892578,15.99951,15.99951,15.10156
2109,-30.09186,71.006065,81.560242,-0.008789063,0.01269531,0.9970703,15.99951,15.99951,15.10156
2111,-14.423406,45.20483,47.311836,-0.02490234,0.000976563,1.013184,15.99951,15.99951,15.10156
2113,-11.64599,45.741161,62.367344,-0.02099609,0.02050781,0.9814453,15.99951,15.99951,15.10156
2115,-24.307175,51.276836,77.058914,0.002441406,0.01269531,0.9697266,15.99951,15.99951,15.12012
2117,-16.511257,32.46703,51.276836,-0.004882813,0.01660156,1.008789,15.99951,15.99951,15.12012
2120,-18.867271,41.048286,67.251762,0.002441406,0.008789063,1.020996,15.99951,15.99951,15.12012
2122,-29.84285,67.558235,64.455193,-0.01318359,0.01269531,0.9970703,15.99951,15.99951,15.10156
2124,-9.194203,41.584614,49.993481,-0.01708984,0.02441406,0.9697266,15.99951,15.99951,15.10156
2126,-9.194203,48.365337,57.731934,0.006347656,0.01269531,0.9697266,15.99951,15.99951,15.10156
2128,-22.142706,55.778164,63.30592,0.01416016,-0.002441406,0.9892578,15.99951,15.99951,15.10156
2130,-10.860652,31.662537,44.457802,-0.004882813,0.01269531,1.008789,15.99951,15.99951,15.12256
2132,-18.637415,44.381184,72.308578,-0.01708984,0.02050781,1.000977,15.99951,15.99951,15.12256
2134,-22.487488,60.394421,55.644081,-0.01318359,-0.006347656,0.9775391,15.99951,15.99951,15.12256
2136,-13.331594,35.167828,47.292683,-0.004882813,0.01269531,1.004883,15.99951,15.99951,15.10938
2138,-6.148623,46.583961,69.799324,-0.000976563,0.004882813,1.028809,15.99951,15.99951,15.10938
2140,-19.997391,62.156643,65.872635,0.002441406,0.008789063,1.013184,15.99951,15.99951,15.10938
2142,-11.396981,32.198864,54.207489,0.01416016,0.000976563,1.036621,15.99951,15.99951,15.1123
2144,-13.695532,38.041016,68.650047,-0.01318359,0.008789063,1.020996,15.99951,15.99951,15.1123
2146,-30.436644,61.945942,70.048332,-0.01318359,0.02441406,0.9970703,15.99951,15.99951,15.1123
2148,-14.078624,48.078018,51.410919,0.02197266,0.01660156,0.9458008,15.99951,15.99951,15.1123
2151,-12.450483,30.379179,55.720699,-0.02490234,0.008789063,0.9892578,15.99951,15.99951,15.09912
2154,-27.314445,85.94664,70.278191,0.04199219,0.01660156,1.020996,15.99951,15.99951,15.09912
2156,-16.549566,39.918163,47.65662,0.006347656,0.02832031,0.9892578,15.99951,15.99951,15.09912
2158,-17.679686,37.064133,65.604469,-0.01318359,0.01269531,0.9814453,15.99951,15.99951,15.1123
2160,-29.67046,64.972366,66.466423,-0.01318359,0.01269531,1.000977,15.99951,15.99951,15.1123
2162,-11.531063,42.178406,50.644733,0.02197266,0.008789063,0.9892578,15.99951,15.99951,15.1123
2164,-9.55814,35.953163,61.17976,0.006347656,0.000976563,1.004883,15.99951,15.99951,15.1123
2166,-28.961739,58.862053,78.821136,-0.008789063,0.01269531,1.020996,15.99951,15.99951,15.1123
2168,-16.128164,43.002052,53.441303,-0.02880859,0.008789063,0.9736328,15.99951,15.99951,15.1123
2170,-16.741112,29.268213,62.884518,-0.02880859,0.01660156,1.01709,15.99951,15.99951,15.1123
2172,-22.813116,46.085941,80.755753,-0.004882813,0.01660156,1.008789,15.99951,15.99951,15.1123
2174,-9.883768,63.612392,54.379879,-0.004882813,0.000976563,0.9931641,15.99951,15.99951,15.1123
2176,-7.642681,37.983551,51.142754,-0.004882813,-0.002441406,0.9892578,15.99951,15.99951,15.1123
2178,-22.602415,44.917511,80.736595,0.002441406,0.03222656,1.020996,15.99951,15.99951,15.11768
2180,-10.630797,59.570774,45.089905,-0.02880859,0.04052734,1.004883,15.99951,15.99951,15.11768
2182,-11.569372,54.015942,62.69297,-0.01318359,0.004882813,0.9892578,15.99951,15.99951,15.11768
2184,-18.637415,55.701546,58.478962,0.03369141,0.02441406,1.004883,15.99951,15.99951,15.11768
2187,-6.186933,88.283501,39.324371,-0.008789063,0.02050781,0.9775391,15.99951,15.99951,15.11768
2189,-6.186933,88.283501,39.324371,-0.008789063,0.02441406,0.9853516,15.99951,15.99951,15.11768
2191,-15.15128,42.082634,79.300003,-0.000976563,0.000976563,0.9853516,15.99951,15.99951,15.11768
2193,9.902923,43.212753,71.178452,-0.02490234,0.02441406,1.000977,15.99951,15.99951,15.11475
2195,-9.768841,21.548914,65.336304,0.002441406,0.04443359,0.9814453,15.99951,15.99951,15.11475
2197,-17.028431,37.179058,74.511353,-0.02880859,0.008789063,0.9970703,15.99951,15.99951,15.11475
2199,4.041618,62.941982,86.444664,0.01025391,0.000976563,1.020996,15.99951,15.99951,15.11768
2201,-9.481522,22.544952,50.223335,-0.004882813,0.000976563,1.008789,15.99951,15.99951,15.11768
2203,-10.132778,34.344181,75.718094,-0.000976563,0.03222656,1.004883,15.99951,15.99951,15.11768
2205,-15.093817,51.813164,57.406303,-0.01318359,-0.01806641,0.9536133,15.99951,15.99951,15.11768
2207,-9.021811,18.062778,44.53442,0.01025391,0.01269531,1.004883,15.99951,15.99951,15.10449
2209,-15.112971,25.609686,80.679131,0.01416016,0.004882813,1.008789,15.99951,15.99951,15.10449
2211,-20.342175,41.56546,95.849564,-0.01708984,-0.01025391,1.036621,15.99951,15.99951,15.10449
2213,-19.710073,26.758963,60.988213,-0.01318359,0.02441406,0.9970703,15.99951,15.99951,15.1123
2215,-6.378479,26.529106,63.325073,-0.02490234,0.01269531,1.024902,15.99951,15.99951,15.1123
2217,-16.549566,32.390411,91.463165,-0.01318359,0.01660156,1.024902,15.99951,15.99951,15.1123
2220,-4.42471,47.1586,59.22599,-0.004882813,0.02832031,0.9970703,15.99951,15.99951,15.1123
2222,-13.197513,29.17244,67.29007,-0.000976563,0.000976563,1.004883,15.99951,15.99951,15.10693
2224,-11.013889,40.186329,75.20092,-0.01708984,0.004882813,0.9775391,15.99951,15.99951,15.10693
2226,-9.787995,54.015942,66.734589,-0.004882813,0.004882813,1.008789,15.99951,15.99951,15.10693
2228,-4.137392,31.643381,52.387802,0.01806641,0.004882813,0.9775391,15.99951,15.99951,15.10693
2230,-13.52314,38.290024,71.906326,-0.02099609,0.01269531,1.000977,15.99951,15.99951,15.10693
2232,-26.165169,44.917511,87.440704,0.02587891,-0.006347656,1.036621,15.99951,15.99951,15.10693
2234,-14.595798,30.09186,45.683697,-0.02099609,0.008789063,0.9814453,15.99951,15.99951,15.1123
2236,-13.331594,30.225943,70.029182,-0.02490234,0.01269531,1.000977,15.99951,15.99951,15.1123
2238,-14.021159,34.861355,75.775558,-0.008789063,0.008789063,0.9970703,15.99951,15.99951,15.1123
2240,2.107005,52.943287,70.488892,-0.008789063,0.000976563,1.020996,15.99951,15.99951,15.1123
2242,-7.202126,32.96505,57.846859,0.01025391,0.01269531,0.9853516,15.99951,15.99951,15.10156
2244,-9.002657,36.642731,64.14872,0.01025391,0.02832031,0.9814453,15.99951,15.99951,15.10156
2246,-6.282705,46.775509,64.187027,0.006347656,0.008789063,0.9736328,15.99951,15.99951,15.10156
2248,-9.730532,42.906281,66.60051,-0.008789063,0.02050781,0.9892578,15.99951,15.99951,15.11475
2250,-3.428672,46.545654,67.903023,0.006347656,0.02050781,0.9814453,15.99951,15.99951,15.11475
2253,-5.573986,41.814468,64.110413,-0.000976563,0.02441406,1.036621,15.99951,15.99951,15.11475
2255,-4.328937,36.585266,64.263649,0.002441406,0.004882813,0.9970703,15.99951,15.99951,15.11475
2257,-4.42471,37.447224,72.040413,-0.000976563,0.000976563,1.008789,15.99951,15.99951,15.10938
2259,-5.152585,44.304565,65.527847,-0.01708984,0.004882813,1.01709,15.99951,15.99951,15.10938
2261,-3.275435,37.60046,66.389809,-0.01708984,0.004882813,1.013184,15.99951,15.99951,15.10938
2263,-2.356014,37.198212,68.803284,-0.01708984,0.02441406,1.020996,15.99951,15.99951,15.12256
2265,-15.323671,37.926086,72.366043,-0.008789063,-0.01025391,0.9931641,15.99951,15.99951,15.12256
2267,-10.496716,34.286716,60.260338,-0.000976563,0.02441406,1.020996,15.99951,15.99951,15.12256
2269,-11.799227,35.167828,74.951912,-0.01318359,0.000976563,1.013184,15.99951,15.99951,15.1123
2271,-9.883768,43.461765,70.048332,0.006347656,0.03222656,0.9931641,15.99951,15.99951,15.1123
2273,-4.348092,26.356716,56.410267,-0.02490234,-0.002441406,1.000977,15.99951,15.99951,15.1123
2275,-6.76157,33.597149,66.179108,-0.01708984,0.02050781,0.9970703,15.99951,15.99951,15.1123
2277,-16.626184,40.875893,79.68309,-0.01708984,0.01660156,0.9736328,15.99951,15.99951,15.10938
2279,-4.865266,50.893745,64.340263,-0.000976563,-0.02587891,0.9736328,15.99951,15.99951,15.10938
2281,-7.278744,25.916161,63.363384,-0.02099609,0.02441406,0.9970703,15.99951,15.99951,15.10938
2285,-12.565411,32.00732,77.288773,0.002441406,0.000976563,1.020996,15.99951,15.99951,15.11768
2288,-2.968961,48.939976,66.983597,0.01025391,0.01269531,1.013184,15.99951,15.99951,15.11768
2290,-4.501328,26.452488,54.609734,-0.000976563,0.02441406,1.013184,15.99951,15.99951,15.11768
2292,-7.431981,46.947899,71.293381,-0.01708984,0.02441406,1.004883,15.99951,15.99951,15.11768
2294,-13.101739,50.414879,78.438042,-0.01318359,0.03222656,0.9931641,15.99951,15.99951,15.11768
2296,-16.492102,19.575991,59.436691,0.002441406,0.008789063,1.020996,15.99951,15.99951,15.11768
2298,-13.867923,34.535725,77.882561,-0.02880859,0.01269531,0.9892578,15.99951,15.99951,15.11768
2300,-4.348092,39.630844,77.32708,-0.02490234,0.01660156,1.024902,15.99951,15.99951,15.11768
2302,-0.976884,24.728575,55.452538,-0.01318359,0.02441406,0.9775391,15.99951,15.99951,15.11768
2304,-6.97227,29.900314,79.395775,-0.02099609,0.01660156,0.9775391,15.99951,15.99951,15.11768
2306,-15.572681,40.148022,77.691017,-0.02880859,-0.002441406,0.9970703,15.99951,15.99951,15.10693
2308,-11.339517,4.443865,63.325073,0.002441406,0.01660156,1.032715,15.99951,15.99951,15.10693
2310,-17.009275,22.41087,82.096573,-0.01708984,0.000976563,1.028809,15.99951,15.99951,15.10693
2312,-24.537029,36.240482,84.490898,-0.02490234,0.01269531,1.000977,15.99951,15.99951,15.10693
2314,-3.313744,37.044975,62.02256,-0.03271484,0.01269531,0.9931641,15.99951,15.99951,15.11475
2316,-10.151933,30.379179,66.006714,0.002441406,0.01269531,0.9853516,15.99951,15.99951,15.11475
2318,-16.492102,30.704807,81.157997,-0.008789063,-0.01025391,0.9614258,15.99951,15.99951,15.11475
2321,-6.608334,39.439301,58.364033,-0.03271484,0.000976563,0.9970703,15.99951,15.99951,15.10938
2323,-11.93331,23.885773,66.332344,0.002441406,0.02050781,1.020996,15.99951,15.99951,15.10938
2325,-16.932657,39.477608,78.572128,0.006347656,0.004882813,1.008789,15.99951,15.99951,15.10938
2327,-5.229203,55.318455,67.136833,-0.000976563,-0.006347656,0.9853516,15.99951,15.99951,15.10938
2329,-5.075966,29.17244,57.253067,-0.02099609,0.01660156,1.000977,15.99951,15.99951,15.10938
2331,-11.990773,40.0714,76.599205,0.006347656,0.01269531,1.004883,15.99951,15.99951,15.10938
2333,-4.712029,51.238525,71.06353,0.006347656,0.01269531,0.9892578,15.99951,15.99951,15.10938
2335,-14.614952,20.916811,56.199566,-0.01318359,-0.006347656,1.013184,15.99951,15.99951,15.10449
2337,-16.453793,36.757656,78.610435,-0.000976563,0.008789063,1.01709,15.99951,15.99951,15.10449
2339,2.030386,44.093864,74.243187,0.01806641,0.004882813,0.9892578,15.99951,15.99951,15.10449
2341,-4.42471,22.947199,56.659275,-0.000976563,0.02832031,0.9970703,15.99951,15.99951,15.11475
2343,-8.753648,38.539036,77.920868,0.01416016,0.008789063,0.9892578,15.99951,15.99951,15.11475
2345,2.221932,39.937321,70.029182,-0.01708984,0.01660156,1.004883,15.99951,15.99951,15.11475
2347,0.191546,11.93331,55.9314,-0.01318359,0.01660156,1.032715,15.99951,15.99951,15.11475
2349,-11.205435,32.696884,82.268959,0.01025391,0.04833984,1.01709,15.99951,15.99951,15.1123
2351,-18.388407,40.626884,66.313187,-0.000976563,0.004882813,0.9931641,15.99951,15.99951,15.1123
2354,-4.865266,23.732536,56.563503,-0.000976563,0.03613281,1.008789,15.99951,15.99951,15.1123
2356,-6.684952,42.369953,72.691666,0.02587891,0.02050781,0.9814453,15.99951,15.99951,15.1123
2358,-7.048889,35.685001,51.659927,-0.008789063,0.04052734,0.9775391,15.99951,15.99951,15.1123
2360,-8.88773,8.60041,53.862705,-0.01318359,-0.006347656,1.028809,15.99951,15.99951,15.1123
2362,-15.802536,25.66715,81.253769,-0.008789063,0.03613281,1.008789,15.99951,15.99951,15.1123
2364,-12.85273,51.1236,76.809906,-0.000976563,0.000976563,1.004883,15.99951,15.99951,15.1123
2366,-15.419445,22.564106,50.62558,-0.01318359,0.02832031,0.9892578,15.99951,15.99951,15.1123
2368,-13.752995,30.819735,74.607124,-0.008789063,0.000976563,0.9970703,15.99951,15.99951,15.1123
2370,-16.779421,46.258335,88.781525,-0.01708984,-0.01025391,0.9853516,15.99951,15.99951,15.11475
2372,-8.868575,9.270822,51.813164,-0.008789063,0.008789063,0.9931641,15.99951,15.99951,15.11475
2374,-9.768841,38.328335,71.73394,-0.008789063,0.02050781,1.01709,15.99951,15.99951,15.11475
2376,-21.012585,34.382488,83.399086,-0.000976563,0.04052734,1.024902,15.99951,15.99951,15.12012
2378,-8.581256,38.807198,62.367344,-0.004882813,-0.006347656,0.9775391,15.99951,15.99951,15.12012
2380,-4.750338,35.282753,68.573433,-0.008789063,0.008789063,1.040527,15.99951,15.99951,15.12012
2382,-28.923429,27.007971,76.752441,-0.01318359,0.000976563,1.000977,15.99951,15.99951,15.12012
2384,-14.365942,34.401642,60.451885,0.006347656,0.01269531,1.004883,15.99951,15.99951,15.10449
2387,-19.461063,29.651304,68.95652,0.02197266,0.04443359,0.9931641,15.99951,15.99951,15.10449
2389,-24.153938,36.546955,88.647438,0.002441406,0.02832031,0.9931641,15.99951,15.99951,15.10449
2391,-11.511909,34.995434,59.0536,-0.01708984,0.000976563,0.9814453,15.99951,15.99951,15.11475
2393,-4.271473,26.146015,64.187027,-0.02099609,0.01269531,0.9853516,15.99951,15.99951,15.11475
2395,-16.338865,22.468334,91.52063,-0.01708984,0.000976563,0.9931641,15.99951,15.99951,15.11475
2397,-8.63872,45.760315,59.455845,0.01806641,-0.002441406,0.9814453,15.99951,15.99951,15.11475
2399,-15.764227,36.681038,78.859444,0.01025391,-0.002441406,0.9697266,15.99951,15.99951,15.11475
2401,-23.349445,41.450531,87.977028,-0.02099609,0.02832031,1.020996,15.99951,15.99951,15.11475
2403,1.474903,41.105751,57.406303,-0.01318359,0.01660156,1.008789,15.99951,15.99951,15.11475
2405,-5.095121,27.850773,61.831017,-0.01318359,0.000976563,0.9892578,15.99951,15.99951,15.11475
2407,-6.684952,29.976933,84.069496,0.006347656,0.02832031,0.9853516,15.99951,15.99951,15.11475
2409,0.861957,46.085941,59.264301,0.006347656,0.000976563,1.040527,15.99951,15.99951,15.11475
2411,-8.236473,26.12686,62.194954,0.02197266,0.01660156,1.000977,15.99951,15.99951,15.11768
2413,-12.661183,33.367294,79.778862,-0.008789063,0.05224609,1.004883,15.99951,15.99951,15.11768
2415,2.700797,48.422802,66.887825,-0.02490234,0.02832031,1.013184,15.99951,15.99951,15.11768
2418,-0.344783,27.755001,62.769588,-0.03271484,-0.002441406,1.052246,15.99951,15.99951,15.11768
2421,-13.446522,39.669155,77.805946,-0.01708984,0.01660156,0.9892578,15.99951,15.99951,15.11768
2423,-1.302512,45.568768,71.274231,-0.03662109,0.01660156,1.032715,15.99951,15.99951,15.11768
2425,-10.381787,19.1929,64.934059,-0.008789063,-0.006347656,1.020996,15.99951,15.99951,15.11768
2427,-15.706763,35.64669,80.545052,-0.004882813,0.03222656,1.000977,15.99951,15.99951,15.10449
2429,5.190894,64.359421,75.833023,0.02587891,0.04833984,1.020996,15.99951,15.99951,15.10449
2431,-4.654565,25.877851,62.558891,-0.02490234,0.008789063,1.008789,15.99951,15.99951,15.10449
2433,-19.690918,31.375217,84.107803,0.02197266,-0.002441406,0.9970703,15.99951,15.99951,15.10938
2435,-4.826957,51.602463,64.47435,-0.000976563,0.01269531,1.013184,15.99951,15.99951,15.10938
2437,-11.895,20.744421,64.225342,-0.01708984,0.004882813,1.013184,15.99951,15.99951,15.10938
2439,-21.874542,27.659227,78.725365,0.01806641,0.02441406,1.000977,15.99951,15.99951,15.10938
2441,-0.996039,52.023865,73.18969,-0.01708984,0.02050781,1.000977,15.99951,15.99951,15.12012
2443,-7.412826,19.384445,45.836933,-0.01318359,0.01269531,1.008789,15.99951,15.99951,15.12012
2445,-13.178358,39.151981,75.737244,-0.01708984,0.02050781,1.004883,15.99951,15.99951,15.12012
2447,-17.717995,37.159904,62.463116,-0.01318359,0.02832031,1.020996,15.99951,15.99951,15.12256
2449,-1.015193,13.98285,61.505386,0.01416016,-0.002441406,1.004883,15.99951,15.99951,15.12256
2451,-13.925386,31.854082,80.717438,-0.01318359,0.02050781,1.008789,15.99951,15.99951,15.12256
2454,-11.243744,50.223335,75.469086,-0.02490234,0.000976563,1.008789,15.99951,15.99951,15.11768
2456,-7.93,27.237827,53.74778,-0.02099609,0.02441406,0.9892578,15.99951,15.99951,15.11768
2458,-6.014541,28.616957,71.848869,-0.01318359,-0.02978516,1.008789,15.99951,15.99951,15.11768
2460,-14.844807,43.36599,85.965797,0.002441406,0.004882813,0.9970703,15.99951,15.99951,15.11768
2462,-3.103044,26.682343,52.57935,-0.03662109,0.02441406,1.004883,15.99951,15.99951,15.1123
2464,-9.251667,21.03174,74.358116,-0.01708984,0.04443359,1.004883,15.99951,15.99951,15.1123
2466,-13.408213,37.887779,92.440048,-0.004882813,0.004882813,1.020996,15.99951,15.99951,15.1123
2468,4.42471,50.280796,61.601162,0.01025391,0.01660156,0.9775391,15.99951,15.99951,15.11475
2470,-5.669758,26.854734,65.776863,0.01806641,0.02832031,0.9892578,15.99951,15.99951,15.11475
2472,-15.668454,33.233212,80.966454,-0.01708984,0.01269531,1.000977,15.99951,15.99951,15.11475
2474,-6.378479,54.015942,60.030483,-0.008789063,0.02832031,1.024902,15.99951,15.99951,15.11475
2476,-8.006618,37.025822,67.117683,-0.02490234,-0.002441406,1.020996,15.99951,15.99951,15.1123
2478,-16.721956,25.360676,78.955215,-0.06445313,-0.002441406,1.004883,15.99951,15.99951,15.1123
2480,-14.040314,35.244446,63.765629,0.01416016,0.008789063,0.9931641,15.99951,15.99951,15.1123
2482,-7.412826,24.517876,57.195606,0.002441406,0.02050781,0.9892578,15.99951,15.99951,15.10449
2484,-19.537682,29.823696,74.779518,-0.02490234,0.01660156,1.032715,15.99951,15.99951,15.10449
2487,-14.538334,48.039711,82.000801,0.02587891,0.01269531,0.9853516,15.99951,15.99951,15.10449
2489,-22.851425,32.888432,57.38715,-0.02880859,-0.002441406,1.01709,15.99951,15.99951,15.10449
2491,-13.31244,28.099783,74.990219,-0.008789063,0.004882813,0.9931641,15.99951,15.99951,15.10449
2493,-19.001352,27.027126,85.180458,-0.008789063,0.02832031,0.9853516,15.99951,15.99951,15.10449
2495,6.589179,70.603821,65.048988,-0.004882813,0.004882813,1.028809,15.99951,15.99951,15.10449
2497,-5.114275,27.410217,61.486233,0.01025391,0.01660156,1.000977,15.99951,15.99951,15.11475
2499,-19.403599,29.612995,82.326424,-0.01318359,0.01269531,1.000977,15.99951,15.99951,15.11475
2501,-10.171087,41.507996,59.111065,0.02197266,0.02441406,0.9853516,15.99951,15.99951,15.11475
2503,-13.101739,36.240482,64.761665,0.002441406,0.02832031,1.020996,15.99951,15.99951,15.11475
2505,-12.316401,27.946547,81.541084,0.006347656,-0.002441406,1.008789,15.99951,15.99951,15.11475
2507,-1.283358,55.165218,75.449928,-0.01318359,0.008789063,1.000977,15.99951,15.99951,15.11475
2509,-3.50529,27.314445,42.580654,0.002441406,-0.01416016,0.9697266,15.99951,15.99951,15.11475
2511,-10.784034,27.640074,81.541084,-0.008789063,-0.01806641,1.020996,15.99951,15.99951,15.11768
2513,-8.083237,38.730579,70.373962,0.006347656,0.01269531,1.004883,15.99951,15.99951,15.11768
2515,-8.983502,13.638068,54.705509,-0.01708984,0.02441406,0.9970703,15.99951,15.99951,15.11768
2517,-15.227899,23.502682,82.47966,0.01416016,-0.02197266,0.9892578,15.99951,15.99951,15.10449
2520,-24.096474,46.124252,84.893143,-0.008789063,-0.01416016,1.024902,15.99951,15.99951,15.10449
2522,-7.412826,32.3521,58.019253,-0.02099609,-0.002441406,0.9536133,15.99951,15.99951,15.10449
2524,-12.163164,24.364637,67.002754,-0.008789063,0.008789063,1.024902,15.99951,15.99951,15.11475
2526,-17.143358,28.655266,73.994179,-0.02099609,0.01269531,0.9892578,15.99951,15.99951,15.11475
2528,-12.833575,43.519226,66.581352,-0.008789063,0.03222656,0.9970703,15.99951,15.99951,15.11475
2530,-10.171087,21.050894,67.424156,-0.008789063,0.004882813,0.9970703,15.99951,15.99951,15.11475
2532,-18.426716,33.616306,76.350197,0.01025391,0.01269531,0.9814453,15.99951,15.99951,15.11768
2534,-7.297899,48.307877,64.4935,-0.008789063,0.02441406,1.036621,15.99951,15.99951,15.11768
2536,-5.803841,32.447876,58.766281,-0.01708984,-0.002441406,1.020996,15.99951,15.99951,15.11768
2538,-13.446522,29.019203,82.594589,-0.008789063,0.01660156,0.9814453,15.99951,15.99951,15.10938
2540,-0.938575,51.583309,76.637512,0.006347656,0.03613281,1.000977,15.99951,15.99951,15.10938
2542,-0.2107,27.774155,56.391113,0.01806641,0.03222656,1.013184,15.99951,15.99951,15.10938
2544,-23.349445,29.785387,83.628937,0.002441406,0.02050781,1.020996,15.99951,15.99951,15.11768
2546,3.7543,45.913551,72.021255,-0.02490234,0.01269531,1.01709,15.99951,15.99951,15.11768
2548,-6.186933,19.729227,56.486885,-0.01708984,0.004882813,1.008789,15.99951,15.99951,15.11768
2552,-11.416136,25.724613,79.625626,0.02587891,0.03222656,1.004883,15.99951,15.99951,15.11768
2555,-5.190894,28.559494,69.95256,0.01025391,0.01660156,1.000977,15.99951,15.99951,15.1123
2557,-10.362633,14.23186,61.486233,0.002441406,0.01269531,0.9931641,15.99951,15.99951,15.1123
2559,-17.928696,21.95116,77.65271,-0.01708984,-0.002441406,1.008789,15.99951,15.99951,15.1123
2561,-23.426064,33.118286,92.554977,-0.01318359,-0.01025391,0.9775391,15.99951,15.99951,15.10693
2563,-1.934614,27.505991,60.126255,-0.01318359,0.01660156,0.9970703,15.99951,15.99951,15.10693
2565,-6.148623,28.502029,68.247803,-0.008789063,0.000976563,0.9970703,15.99951,15.99951,15.10693
2567,-19.173744,44.055557,85.678482,0.01806641,0.01660156,1.008789,15.99951,15.99951,15.10693
2569,-9.117584,42.3508,51.276836,-0.000976563,0.008789063,1.028809,15.99951,15.99951,15.11768
2571,-10.707416,24.575338,68.726669,-0.008789063,0.01660156,0.9853516,15.99951,15.99951,15.11768
2573,-5.114275,24.479565,73.036453,-0.01318359,0.004882813,0.9931641,15.99951,15.99951,15.11768
2575,0,49.648697,69.569473,0.002441406,0.01660156,1.036621,15.99951,15.99951,15.11768
2577,-3.25628,30.111015,59.589928,-0.01708984,0.01660156,0.9970703,15.99951,15.99951,15.11768
2579,-5.631449,39.151981,78.150726,0.006347656,0.000976563,1.020996,15.99951,15.99951,15.11768
2581,-19.997391,48.480267,55.471691,-0.01318359,0.01660156,1.000977,15.99951,15.99951,15.12256
2583,-9.59645,31.068745,66.772896,-0.02099609,0.02441406,0.9775391,15.99951,15.99951,15.12256
2585,-7.585217,38.519878,73.017296,-0.04052734,0.01269531,1.000977,15.99951,15.99951,15.12256
2588,-6.072005,34.47826,56.755051,0.01416016,-0.01025391,0.9814453,15.99951,15.99951,15.12256
2590,-0.91942,38.960434,63.382538,-0.000976563,0.000976563,1.020996,15.99951,15.99951,15.11768
2592,-4.539638,36.451183,70.048332,0.01025391,0.01269531,1.013184,15.99951,15.99951,15.11768
2594,-7.489445,36.163864,67.788094,-0.008789063,0.03222656,0.9931641,15.99951,15.99951,15.11768
2596,-7.527754,35.895702,69.262993,-0.004882813,0.000976563,1.020996,15.99951,15.99951,15.10449
2598,-7.25959,37.389759,67.309227,0.02978516,0.01269531,0.9931641,15.99951,15.99951,15.10449
2600,-5.420749,36.470337,69.990868,-0.000976563,0.02441406,0.9736328,15.99951,15.99951,15.10449
2602,-5.995387,36.795967,69.128914,0.04199219,0.000976563,0.9892578,15.99951,15.99951,15.10449
2604,-6.933961,37.715385,68.305267,0.002441406,0.02050781,0.9614258,15.99951,15.99951,15.1123
2606,-5.784686,36.489494,68.803284,-0.02490234,0.02050781,1.004883,15.99951,15.99951,15.1123
2608,-5.899613,36.317101,66.906982,-0.008789063,0.01269531,0.9970703,15.99951,15.99951,15.1123
2610,-5.516522,38.136787,69.550316,0.002441406,-0.01806641,0.9658203,15.99951,15.99951,15.10156
2612,-5.516522,37.983551,67.654007,-0.02490234,0.004882813,0.9892578,15.99951,15.99951,15.10156
2614,-5.84215,37.657925,68.171181,-0.008789063,0.01269531,1.000977,15.99951,15.99951,15.10156
